Folder: EDX-Concrete-Analysis/EDX Back Ups and Old Files/EDX Processed Data/.ipynb_checkpoints

Note: README.md
This is Anthony's repository for doing all sorts of Energy Dispersive X-ray Analysis on concrete samples.

File: High pH BL 25C 14d-checkpoint.txt
Name: High pH BL 25C 14d
Number of Scans: 29
Positions: [-13.0, -12.75, -12.5, -12.25, -12.0, -11.75, -11.5, -11.25, -11.0, -10.75, -10.5, -10.25, -10.0, -9.75, -9.5, -9.25, -9.0, -8.75, -8.5, -8.25, -8.0, -7.75, -7.5, -7.25, -7.0, -6.75, -6.5, -6.25, -6.0]
Points per Scan: 2048
Sample Edge: 3
Scans Off Sample: [0, 1, 2]
Conversion Features: [(275, 17444.3), (309, 19608.3), (913, 57981.7), (934, 59318.24), (1058, 67244.3)]
Degree of Fit: 3
Fit Coeffecients: [ 8.59183e-07 -0.001482  64.3003 -144.207]
pH: High
Steel Fiber: False
Aging Temp.: 25
Aging Atm.: 100% CO2
Aging Humidity: None
Aging Time: 14

*********
#Bins	Energy [keV]	Avg. Background	-12.25 [mm]	-12.0 [mm]	-11.75 [mm]	-11.5 [mm]	-11.25 [mm]	-11.0 [mm]	-10.75 [mm]	-10.5 [mm]	-10.25 [mm]	-10.0 [mm]	-9.75 [mm]	-9.5 [mm]	-9.25 [mm]	-9.0 [mm]	-8.75 [mm]	-8.5 [mm]	-8.25 [mm]	-8.0 [mm]	-7.75 [mm]	-7.5 [mm]	-7.25 [mm]	-7.0 [mm]	-6.75 [mm]	-6.5 [mm]	-6.25 [mm]	-6.0 [mm]
0	-0.144	0.0	0.0	0.0	0.0	0.0	0.0	0.0	0.0	0.0	0.0	0.0	0.0	0.0	0.0	0.0	0.0	0.0	0.0	0.0	0.0	0.0	0.0	0.0	0.0	0.0	0.0	0.0
31	1.848	18.67	5.33	-5.67	2.33	-4.67	-2.67	-1.67	-5.67	-0.67	-2.67	0.33	2.33	-2.67	-6.67	-4.67	2.33	-6.67	2.33	-0.67	-0.67	2.33	-6.67	-0.67	-3.67	-7.67	-5.67	-3.67
62	3.837	0.33	-0.33	-0.33	0.67	0.67	0.67	-0.33	1.67	-0.33	-0.33	-0.33	-0.33	-0.33	0.67	-0.33	-0.33	-0.33	-0.33	1.67	-0.33	-0.33	-0.33	0.67	-0.33	-0.33	-0.33	-0.33
93	5.824	1.33	-1.33	0.67	0.67	-1.33	-0.33	0.67	-1.33	-0.33	1.67	-1.33	0.67	-0.33	-1.33	-0.33	-0.33	-0.33	-0.33	-1.33	-1.33	-1.33	-1.33	0.67	0.67	-0.33	-0.33	-0.33
124	7.808	5.0	3.0	-1.0	1.0	1.0	-3.0	2.0	0.0	0.0	-1.0	-2.0	1.0	-3.0	0.0	3.0	-2.0	2.0	1.0	2.0	-2.0	-3.0	3.0	1.0	0.0	3.0	2.0	0.0
155	9.79	10.33	-5.33	-4.33	4.67	-1.33	2.67	0.67	1.67	3.67	1.67	-0.33	-3.33	2.67	-2.33	1.67	1.67	-1.33	-3.33	5.67	-3.33	5.67	6.67	-2.33	2.67	4.67	0.67	6.67
186	11.77	9.33	-0.33	1.67	-0.33	6.67	1.67	3.67	1.67	4.67	4.67	0.67	5.67	6.67	-0.33	0.67	10.67	4.67	2.67	0.67	-0.33	2.67	5.67	7.67	3.67	-1.33	-0.33	-0.33
217	13.748	10.67	7.33	3.33	-3.67	-2.67	9.33	2.33	-3.67	1.33	-0.67	7.33	-0.67	-3.67	-0.67	0.33	0.33	1.33	0.33	0.33	-1.67	4.33	1.33	3.33	3.33	-0.67	3.33	4.33
248	15.724	11.67	1.33	6.33	4.33	6.33	-4.67	-9.67	-0.67	1.33	1.33	-1.67	6.33	-2.67	-1.67	4.33	-1.67	-0.67	3.33	2.33	0.33	6.33	2.33	1.33	1.33	6.33	-1.67	-1.67
279	17.699	7.67	-1.67	7.33	4.33	6.33	0.33	5.33	4.33	7.33	12.33	7.33	1.33	7.33	0.33	-1.67	3.33	3.33	4.33	9.33	2.33	3.33	1.33	2.33	7.33	4.33	7.33	0.33
310	19.672	7.33	8.67	10.67	1.67	4.67	0.67	2.67	10.67	7.67	8.67	6.67	5.67	8.67	3.67	2.67	10.67	11.67	-1.33	10.67	6.67	7.67	4.67	11.67	4.67	8.67	5.67	7.67
341	21.644	9.33	2.67	-0.33	-1.33	-1.33	-1.33	1.67	-1.33	-0.33	4.67	-3.33	4.67	-2.33	1.67	5.67	2.67	1.67	1.67	7.67	1.67	-5.33	9.67	7.67	4.67	0.67	15.67	5.67
372	23.615	10.67	6.33	-7.67	-0.67	1.33	1.33	1.33	1.33	-2.67	0.33	-2.67	4.33	-0.67	0.33	-3.67	3.33	1.33	-6.67	-0.67	0.33	-6.67	1.33	-1.67	3.33	-1.67	-0.67	-1.67
403	25.584	8.33	2.67	-2.33	-2.33	0.67	2.67	-1.33	-1.33	2.67	1.67	6.67	5.67	0.67	3.67	2.67	4.67	-0.33	0.67	7.67	4.67	2.67	1.67	0.67	-0.33	5.67	5.67	1.67
434	27.553	7.67	0.33	-0.67	-1.67	0.33	-0.67	-1.67	1.33	-0.67	1.33	2.33	0.33	4.33	5.33	4.33	2.33	-1.67	8.33	2.33	-0.67	3.33	-4.67	-3.67	3.33	3.33	4.33	2.33
465	29.521	5.67	-1.67	-2.67	4.33	-1.67	2.33	-0.67	0.33	4.33	3.33	1.33	1.33	0.33	-0.67	4.33	5.33	-1.67	4.33	6.33	1.33	8.33	2.33	1.33	-0.67	7.33	2.33	1.33
496	31.489	4.33	-1.33	-0.33	2.67	1.67	3.67	1.67	6.67	-0.33	0.67	6.67	4.67	3.67	2.67	4.67	0.67	3.67	0.67	0.67	-0.33	-0.33	0.67	3.67	2.67	-0.33	4.67	5.67
527	33.456	6.33	1.67	-0.33	-2.33	-2.33	0.67	0.67	5.67	-0.33	-3.33	5.67	-1.33	-1.33	-2.33	-1.33	0.67	-1.33	-0.33	-1.33	4.67	-1.33	1.67	0.67	0.67	6.67	4.67	0.67
558	35.423	5.0	-2.0	2.0	-1.0	-2.0	3.0	-3.0	1.0	-4.0	2.0	1.0	2.0	0.0	-4.0	4.0	-3.0	-1.0	-2.0	0.0	5.0	3.0	6.0	7.0	5.0	-3.0	2.0	3.0
589	37.39	5.0	3.0	-2.0	3.0	1.0	-2.0	0.0	0.0	-1.0	-3.0	3.0	1.0	-4.0	2.0	1.0	1.0	7.0	5.0	0.0	6.0	3.0	-1.0	4.0	-1.0	5.0	0.0	-2.0
620	39.357	5.0	4.0	2.0	1.0	2.0	-1.0	0.0	-1.0	-1.0	3.0	-2.0	-2.0	0.0	0.0	1.0	0.0	2.0	4.0	0.0	-1.0	2.0	0.0	-2.0	10.0	0.0	2.0	2.0
651	41.324	7.33	-2.33	-2.33	-0.33	-1.33	-0.33	-1.33	3.67	-3.33	-0.33	-2.33	-1.33	-1.33	-4.33	-1.33	-2.33	-1.33	-0.33	-2.33	-3.33	-3.33	-2.33	-0.33	3.67	2.67	-4.33	8.67
682	43.292	5.0	-3.0	5.0	0.0	-2.0	-1.0	5.0	-4.0	-1.0	4.0	1.0	5.0	1.0	2.0	1.0	-1.0	-1.0	3.0	0.0	1.0	4.0	-3.0	2.0	-1.0	1.0	4.0	2.0
713	45.26	6.67	-1.67	-2.67	-1.67	3.33	4.33	-3.67	-1.67	5.33	2.33	2.33	-1.67	1.33	1.33	2.33	1.33	2.33	-0.67	5.33	0.33	-2.67	3.33	1.33	2.33	-3.67	-1.67	-1.67
744	47.229	6.33	-4.33	5.67	3.67	0.67	-6.33	0.67	4.67	0.67	0.67	0.67	5.67	-1.33	7.67	-3.33	-2.33	6.67	-0.33	2.67	-1.33	-0.33	-0.33	-2.33	3.67	4.67	0.67	0.67
775	49.198	10.33	-6.33	1.67	-2.33	5.67	4.67	-0.33	3.67	-1.33	0.67	-3.33	-1.33	0.67	-0.33	-4.33	-3.33	-1.33	3.67	-1.33	-0.33	2.67	0.67	-4.33	-3.33	0.67	8.67	-0.33
806	51.169	13.33	3.67	-0.33	-5.33	-1.33	6.67	11.67	23.67	5.67	9.67	18.67	23.67	16.67	10.67	24.67	14.67	18.67	24.67	13.67	18.67	8.67	16.67	16.67	14.67	14.67	8.67	15.67
837	53.141	12.0	-5.0	-4.0	2.0	10.0	2.0	1.0	3.0	13.0	3.0	-1.0	-4.0	10.0	1.0	5.0	-3.0	0.0	14.0	4.0	9.0	-4.0	7.0	-3.0	1.0	1.0	-3.0	8.0
868	55.114	10.33	2.67	2.67	5.67	3.67	3.67	1.67	-1.33	-1.33	0.67	3.67	1.67	0.67	3.67	0.67	-2.33	-4.33	-0.33	5.67	7.67	7.67	5.67	2.67	-1.33	-0.33	-0.33	4.67
899	57.088	10.0	-3.0	-1.0	1.0	8.0	-4.0	8.0	10.0	4.0	2.0	-1.0	2.0	2.0	-1.0	7.0	5.0	5.0	11.0	4.0	5.0	8.0	-1.0	5.0	3.0	5.0	5.0	2.0
930	59.064	13.33	12.67	-2.33	0.67	9.67	3.67	0.67	5.67	9.67	6.67	12.67	4.67	5.67	6.67	-1.33	1.67	7.67	0.67	1.67	8.67	3.67	8.67	7.67	2.67	1.67	8.67	7.67
961	61.042	12.33	-2.33	10.67	7.67	1.67	4.67	3.67	3.67	3.67	4.67	5.67	-4.33	5.67	1.67	-0.33	0.67	5.67	-1.33	-0.33	-1.33	5.67	3.67	3.67	0.67	2.67	1.67	1.67
992	63.022	11.33	4.67	7.67	4.67	12.67	1.67	-2.33	8.67	5.67	17.67	9.67	16.67	4.67	11.67	12.67	-0.33	5.67	-2.33	1.67	1.67	9.67	8.67	4.67	5.67	1.67	6.67	10.67
1023	65.004	13.67	7.33	22.33	6.33	25.33	12.33	16.33	25.33	11.33	14.33	2.33	17.33	11.33	11.33	12.33	7.33	7.33	15.33	10.33	4.33	9.33	13.33	12.33	7.33	2.33	12.33	3.33
1054	66.988	13.0	5.0	10.0	14.0	10.0	1.0	18.0	12.0	9.0	20.0	8.0	6.0	12.0	13.0	15.0	17.0	15.0	13.0	6.0	11.0	6.0	6.0	9.0	12.0	16.0	11.0	6.0
1085	68.974	14.33	7.67	10.67	0.67	11.67	2.67	7.67	5.67	-2.33	4.67	5.67	5.67	-0.33	10.67	10.67	4.67	11.67	3.67	4.67	10.67	5.67	4.67	9.67	11.67	9.67	7.67	8.67
1116	70.963	11.0	2.0	8.0	8.0	9.0	9.0	9.0	7.0	14.0	16.0	14.0	6.0	8.0	12.0	8.0	9.0	7.0	11.0	5.0	7.0	9.0	7.0	5.0	16.0	10.0	11.0	1.0
1147	72.955	29.33	-0.33	11.67	12.67	7.67	10.67	2.67	14.67	18.67	17.67	12.67	6.67	8.67	9.67	24.67	9.67	2.67	3.67	4.67	7.67	4.67	8.67	10.67	2.67	11.67	13.67	4.67
1178	74.95	36.33	0.67	13.67	13.67	0.67	9.67	6.67	7.67	10.67	12.67	1.67	13.67	-0.33	9.67	11.67	6.67	8.67	5.67	5.67	14.67	20.67	-1.33	1.67	18.67	10.67	-0.33	4.67
1209	76.947	15.0	1.0	6.0	11.0	2.0	9.0	2.0	-2.0	13.0	7.0	8.0	7.0	7.0	15.0	5.0	10.0	1.0	5.0	5.0	10.0	9.0	6.0	12.0	3.0	3.0	6.0	-4.0
1240	78.948	11.67	8.33	10.33	9.33	15.33	2.33	5.33	15.33	10.33	9.33	24.33	12.33	17.33	5.33	10.33	15.33	12.33	2.33	7.33	7.33	16.33	15.33	6.33	11.33	12.33	9.33	14.33
1271	80.952	13.67	11.33	16.33	0.33	6.33	15.33	17.33	21.33	18.33	29.33	11.33	14.33	15.33	20.33	17.33	12.33	18.33	21.33	10.33	17.33	11.33	14.33	15.33	8.33	22.33	16.33	8.33
[...]
1364	86.985	24.0	8.0	12.0	7.0	17.0	9.0	17.0	6.0	14.0	12.0	20.0	20.0	5.0	3.0	5.0	1.0	6.0	4.0	11.0	17.0	11.0	1.0	13.0	-5.0	8.0	4.0	18.0
1395	89.003	21.67	2.33	14.33	9.33	15.33	13.33	22.33	7.33	21.33	6.33	7.33	15.33	6.33	11.33	12.33	16.33	-1.67	13.33	3.33	12.33	15.33	8.33	15.33	8.33	15.33	10.33	17.33
1426	91.026	27.0	1.0	2.0	4.0	7.0	-1.0	10.0	9.0	1.0	7.0	6.0	6.0	1.0	0.0	-4.0	6.0	16.0	12.0	3.0	4.0	5.0	7.0	6.0	7.0	10.0	7.0	-3.0
1457	93.053	26.67	20.33	0.33	9.33	14.33	4.33	11.33	11.33	24.33	6.33	9.33	14.33	8.33	13.33	20.33	2.33	13.33	0.33	11.33	4.33	3.33	13.33	20.33	12.33	-0.67	10.33	18.33
1488	95.084	33.33	-1.33	6.67	0.67	8.67	-0.33	7.67	3.67	-7.33	4.67	5.67	11.67	0.67	2.67	-4.33	11.67	6.67	8.67	5.67	7.67	6.67	-8.33	3.67	6.67	7.67	2.67	11.67
1519	97.12	35.33	-6.33	3.67	-1.33	13.67	6.67	16.67	23.67	19.67	28.67	16.67	25.67	24.67	14.67	29.67	30.67	31.67	17.67	26.67	28.67	28.67	18.67	24.67	37.67	34.67	34.67	21.67
1550	99.16	33.67	2.33	0.33	-7.67	8.33	-5.67	10.33	9.33	9.33	4.33	8.33	-1.67	19.33	24.33	6.33	3.33	2.33	-2.67	6.33	-1.67	8.33	8.33	14.33	23.33	7.33	-1.67	1.33
1581	101.206	30.67	9.33	6.33	6.33	14.33	19.33	3.33	7.33	-9.67	9.33	2.33	1.33	11.33	3.33	1.33	8.33	4.33	14.33	9.33	12.33	8.33	13.33	10.33	24.33	2.33	10.33	-5.67
1612	103.256	29.67	7.33	10.33	12.33	-2.67	9.33	5.33	10.33	0.33	8.33	17.33	17.33	0.33	11.33	-1.67	10.33	12.33	2.33	5.33	7.33	6.33	15.33	14.33	12.33	8.33	16.33	5.33
1643	105.311	25.67	8.33	7.33	3.33	10.33	9.33	15.33	16.33	12.33	0.33	0.33	8.33	5.33	10.33	17.33	-3.67	9.33	3.33	14.33	14.33	9.33	3.33	-1.67	13.33	8.33	15.33	2.33
1674	107.372	22.67	4.33	19.33	7.33	7.33	15.33	6.33	11.33	8.33	7.33	15.33	10.33	4.33	9.33	26.33	0.33	9.33	4.33	6.33	0.33	17.33	4.33	14.33	13.33	11.33	16.33	1.33
1705	109.438	27.33	3.67	-1.33	-6.33	-0.33	1.67	-5.33	-3.33	-0.33	-0.33	-6.33	3.67	1.67	-2.33	1.67	-5.33	3.67	0.67	-1.33	-0.33	-2.33	-0.33	-0.33	0.67	8.67	-0.33	0.67
1736	111.51	23.0	4.0	18.0	7.0	3.0	3.0	7.0	7.0	15.0	5.0	0.0	0.0	0.0	11.0	6.0	-2.0	10.0	-2.0	2.0	2.0	13.0	5.0	6.0	-6.0	14.0	8.0	6.0
1767	113.587	26.0	4.0	7.0	10.0	1.0	-6.0	4.0	-10.0	-4.0	3.0	-5.0	-6.0	-9.0	-10.0	-3.0	-6.0	-9.0	-7.0	-1.0	4.0	-2.0	-1.0	5.0	2.0	0.0	-2.0	4.0
1798	115.671	17.0	3.0	6.0	-1.0	5.0	8.0	2.0	1.0	9.0	6.0	1.0	4.0	3.0	9.0	4.0	6.0	3.0	6.0	6.0	11.0	0.0	6.0	-1.0	10.0	4.0	-5.0	5.0
1829	117.76	16.0	1.0	-3.0	-3.0	0.0	11.0	-2.0	2.0	8.0	6.0	1.0	4.0	-3.0	2.0	5.0	0.0	3.0	-6.0	5.0	7.0	10.0	-4.0	8.0	14.0	6.0	0.0	3.0
1860	119.856	16.67	-0.67	-4.67	-6.67	-3.67	-6.67	7.33	-0.67	-1.67	-2.67	-2.67	-0.67	6.33	-4.67	2.33	-2.67	1.33	-1.67	-3.67	-2.67	0.33	11.33	-2.67	4.33	6.33	4.33	6.33
1891	121.958	9.0	1.0	4.0	1.0	5.0	4.0	4.0	8.0	10.0	5.0	6.0	11.0	6.0	4.0	7.0	6.0	6.0	7.0	12.0	10.0	10.0	12.0	-1.0	11.0	7.0	7.0	6.0
1922	124.067	12.33	3.67	9.67	2.67	8.67	2.67	6.67	2.67	-0.33	-3.33	3.67	-1.33	1.67	-4.33	5.67	4.67	3.67	10.67	3.67	5.67	-0.33	2.67	0.67	-0.33	3.67	1.67	5.67
1953	126.182	7.67	0.33	5.33	9.33	3.33	2.33	-1.67	5.33	8.33	2.33	3.33	5.33	5.33	8.33	0.33	7.33	4.33	5.33	6.33	0.33	-0.67	5.33	4.33	6.33	1.33	0.33	5.33
1984	128.304	8.67	-0.67	1.33	7.33	0.33	0.33	1.33	-5.67	-0.67	3.33	4.33	-0.67	4.33	0.33	4.33	3.33	4.33	2.33	1.33	-0.67	0.33	3.33	0.33	5.33	3.33	5.33	6.33
2015	130.433	9.0	5.0	3.0	-1.0	7.0	-3.0	2.0	0.0	6.0	-2.0	3.0	1.0	-1.0	-2.0	-1.0	4.0	1.0	0.0	3.0	2.0	8.0	-2.0	1.0	5.0	3.0	-3.0	6.0
2046	132.569	10.67	-1.67	0.33	-0.67	-5.67	-8.67	1.33	-0.67	-0.67	5.33	3.33	-3.67	-3.67	-6.67	-4.67	-1.67	-3.67	-3.67	-5.67	-4.67	1.33	-1.67	1.33	-1.67	-5.67	6.33	2.33
2047	132.638	10.67	-3.67	-3.67	-5.67	-4.67	-3.67	-5.67	-3.67	-3.67	-4.67	-6.67	-2.67	3.33	0.33	-1.67	-1.67	0.33	-2.67	-4.67	1.33	-0.67	-1.67	-0.67	-1.67	1.33	-4.67	-0.67

File: High pH BL 60C 6d-checkpoint.txt
Name: High pH BL 60C 6d
Number of Scans: 29
Positions: [-13.0, -12.75, -12.5, -12.25, -12.0, -11.75, -11.5, -11.25, -11.0, -10.75, -10.5, -10.25, -10.0, -9.75, -9.5, -9.25, -9.0, -8.75, -8.5, -8.25, -8.0, -7.75, -7.5, -7.25, -7.0, -6.75, -6.5, -6.25, -6.0]
Points per Scan: 2048
Sample Edge: 3
Scans Off Sample: [0, 1, 2]
Conversion Features: [(275, 17444.3), (309, 19608.3), (913, 57981.7), (934, 59318.24), (1058, 67244.3)]
Degree of Fit: 3
Fit Coeffecients: [ 8.59183e-07 -0.001482  64.3003 -144.207]
pH: High
Steel Fiber: False
Aging Temp.: 60
Aging Atm.: 100% CO2
Aging Humidity: None
Aging Time: 6

*********
#Bins	Energy [keV]	Avg. Background	-12.25 [mm]	-12.0 [mm]	-11.75 [mm]	-11.5 [mm]	-11.25 [mm]	-11.0 [mm]	-10.75 [mm]	-10.5 [mm]	-10.25 [mm]	-10.0 [mm]	-9.75 [mm]	-9.5 [mm]	-9.25 [mm]	-9.0 [mm]	-8.75 [mm]	-8.5 [mm]	-8.25 [mm]	-8.0 [mm]	-7.75 [mm]	-7.5 [mm]	-7.25 [mm]	-7.0 [mm]	-6.75 [mm]	-6.5 [mm]	-6.25 [mm]	-6.0 [mm]
0	-0.144207	0.0	0.0	0.0	0.0	0.0	0.0	0.0	0.0	0.0	0.0	0.0	0.0	0.0	0.0	0.0	0.0	0.0	0.0	0.0	0.0	0.0	0.0	0.0	0.0	0.0	0.0	0.0
31	1.8477	15.0	4.0	-4.0	4.0	-5.0	1.0	1.0	10.0	3.0	3.0	10.0	-3.0	8.0	7.0	9.0	6.0	-1.0	1.0	6.0	5.0	2.0	-2.0	2.0	-3.0	-6.0	5.0	0.0
62	3.83692	0.0	1.0	0.0	0.0	0.0	1.0	1.0	1.0	1.0	1.0	0.0	0.0	1.0	0.0	1.0	1.0	0.0	0.0	0.0	0.0	0.0	0.0	1.0	0.0	0.0	0.0	0.0
93	5.8236	0.67	-0.67	-0.67	-0.67	-0.67	1.33	1.33	1.33	0.33	-0.67	0.33	-0.67	-0.67	1.33	0.33	0.33	-0.67	-0.67	0.33	-0.67	0.33	1.33	1.33	0.33	0.33	-0.67	-0.67
124	7.80789	4.67	-0.67	0.33	0.33	-2.67	-2.67	-0.67	1.33	0.33	0.33	-3.67	-0.67	-0.67	-0.67	1.33	3.33	-2.67	-0.67	0.33	-2.67	3.33	0.33	1.33	-1.67	-1.67	-0.67	4.33
155	9.78994	9.33	-0.33	2.67	1.67	-2.33	2.67	5.67	0.67	3.67	-0.33	-0.33	3.67	-3.33	-5.33	0.67	7.67	-6.33	-1.33	4.67	0.67	2.67	2.67	-3.33	0.67	-2.33	0.67	2.67
186	11.7699	12.0	-2.0	1.0	-2.0	-3.0	2.0	2.0	3.0	-1.0	-3.0	0.0	-3.0	2.0	1.0	2.0	6.0	-2.0	1.0	-3.0	3.0	-1.0	-4.0	-2.0	3.0	1.0	4.0	4.0
217	13.748	12.0	3.0	-3.0	-2.0	-3.0	-5.0	-1.0	-1.0	-3.0	1.0	4.0	0.0	2.0	-5.0	0.0	2.0	0.0	3.0	-6.0	-2.0	0.0	-3.0	-4.0	3.0	-1.0	10.0	0.0
248	15.7242	7.33	0.67	2.67	7.67	5.67	9.67	6.67	1.67	8.67	1.67	5.67	3.67	3.67	3.67	8.67	-0.33	6.67	6.67	6.67	7.67	2.67	7.67	3.67	1.67	4.67	10.67	5.67
279	17.6989	10.33	-2.33	0.67	1.67	-2.33	-1.33	-1.33	4.67	0.67	3.67	2.67	7.67	0.67	2.67	-0.33	9.67	7.67	2.67	3.67	-4.33	-1.33	4.67	-0.33	0.67	4.67	6.67	0.67
310	19.6721	9.33	1.67	-2.33	-3.33	3.67	0.67	-2.33	3.67	-0.33	-2.33	0.67	6.67	0.67	2.67	4.67	-0.33	-0.33	4.67	3.67	-0.33	8.67	0.67	-0.33	8.67	0.67	2.67	0.67
341	21.6439	9.0	2.0	-1.0	-1.0	6.0	1.0	6.0	-1.0	-2.0	-2.0	-2.0	-3.0	1.0	3.0	0.0	2.0	0.0	-1.0	-1.0	3.0	-4.0	2.0	5.0	2.0	6.0	2.0	5.0
372	23.6147	9.0	0.0	0.0	8.0	2.0	-4.0	-3.0	3.0	3.0	-5.0	1.0	2.0	0.0	4.0	0.0	3.0	-4.0	9.0	1.0	2.0	0.0	3.0	5.0	2.0	1.0	0.0	4.0
403	25.5844	6.33	-1.33	-2.33	3.67	7.67	1.67	-1.33	-3.33	3.67	1.67	-0.33	2.67	3.67	3.67	-1.33	4.67	-1.33	6.67	5.67	1.67	-0.33	4.67	3.67	5.67	-0.33	10.67	7.67
434	27.5532	6.67	0.33	10.33	-2.67	-0.67	3.33	6.33	-0.67	0.33	3.33	-2.67	3.33	2.33	-1.67	4.33	2.33	3.33	2.33	5.33	6.33	-2.67	6.33	0.33	5.33	0.33	5.33	3.33
465	29.5214	4.67	2.33	5.33	3.33	6.33	2.33	8.33	1.33	2.33	5.33	3.33	5.33	6.33	5.33	1.33	4.33	8.33	1.33	2.33	7.33	3.33	5.33	1.33	-0.67	5.33	2.33	2.33
496	31.489	7.0	2.0	6.0	-2.0	1.0	0.0	-2.0	-3.0	1.0	1.0	-6.0	-2.0	-3.0	2.0	0.0	4.0	6.0	-3.0	-3.0	-1.0	-2.0	-1.0	5.0	-4.0	-2.0	0.0	0.0
527	33.4562	2.67	4.33	2.33	6.33	3.33	6.33	2.33	3.33	4.33	0.33	-1.67	8.33	4.33	1.33	0.33	9.33	3.33	6.33	4.33	5.33	4.33	7.33	3.33	4.33	1.33	1.33	4.33
558	35.4232	4.0	2.0	0.0	5.0	3.0	3.0	4.0	0.0	-1.0	7.0	1.0	1.0	1.0	4.0	2.0	2.0	7.0	1.0	-1.0	1.0	5.0	0.0	-1.0	5.0	3.0	-1.0	2.0
589	37.3901	5.33	1.67	-2.33	-0.33	-4.33	2.67	-1.33	-4.33	2.67	1.67	1.67	4.67	-0.33	0.67	-1.33	-1.33	0.67	6.67	-2.33	2.67	1.67	-2.33	-2.33	1.67	1.67	2.67	-1.33
620	39.3571	7.0	-3.0	-3.0	-2.0	-1.0	-1.0	-3.0	1.0	1.0	0.0	-4.0	-1.0	4.0	-1.0	-4.0	-2.0	-4.0	-6.0	-3.0	1.0	2.0	-3.0	-1.0	2.0	-5.0	1.0	4.0
651	41.3243	6.67	-3.67	-2.67	-2.67	-0.67	-1.67	-1.67	-0.67	-3.67	-2.67	2.33	5.33	-3.67	-1.67	4.33	-2.67	3.33	-2.67	2.33	1.33	-1.67	0.33	-1.67	-1.67	0.33	-0.67	-1.67
682	43.2919	5.33	2.67	1.67	0.67	3.67	-0.33	-1.33	-1.33	-3.33	-0.33	-0.33	1.67	2.67	2.67	-3.33	2.67	-0.33	5.67	2.67	5.67	-3.33	0.67	4.67	3.67	6.67	0.67	-2.33
713	45.26	6.67	-1.67	-2.67	-2.67	1.33	3.33	1.33	4.33	1.33	-4.67	1.33	2.33	-2.67	0.33	-3.67	-1.67	2.33	-0.67	-0.67	-2.67	-4.67	3.33	1.33	6.33	0.33	-2.67	-2.67
744	47.2287	6.0	-1.0	-1.0	4.0	-1.0	-1.0	0.0	2.0	6.0	4.0	2.0	-2.0	1.0	1.0	2.0	3.0	0.0	6.0	-2.0	2.0	-3.0	1.0	0.0	3.0	1.0	3.0	3.0
775	49.1984	9.0	-5.0	4.0	-1.0	0.0	-1.0	1.0	-2.0	5.0	4.0	2.0	-1.0	0.0	-4.0	-1.0	1.0	4.0	-4.0	-2.0	-2.0	-1.0	-3.0	0.0	5.0	6.0	4.0	-2.0
806	51.169	7.67	1.33	3.33	6.33	6.33	3.33	5.33	5.33	3.33	5.33	6.33	11.33	14.33	16.33	20.33	26.33	20.33	21.33	22.33	15.33	14.33	17.33	24.33	24.33	19.33	21.33	27.33
837	53.1407	7.67	1.33	1.33	2.33	7.33	1.33	8.33	2.33	7.33	3.33	1.33	4.33	6.33	-0.67	1.33	1.33	12.33	3.33	8.33	5.33	18.33	10.33	4.33	4.33	3.33	1.33	0.33
868	55.1138	9.67	-1.67	4.33	2.33	5.33	6.33	2.33	2.33	3.33	0.33	-0.67	5.33	1.33	2.33	-1.67	1.33	10.33	5.33	2.33	-1.67	8.33	3.33	5.33	3.33	-1.67	5.33	1.33
899	57.0883	10.33	4.67	-4.33	2.67	3.67	10.67	-0.33	5.67	2.67	-0.33	7.67	-0.33	7.67	1.67	3.67	4.67	10.67	3.67	6.67	-4.33	2.67	4.67	-4.33	8.67	4.67	1.67	3.67
930	59.0644	11.33	4.67	9.67	7.67	11.67	5.67	5.67	3.67	-0.33	2.67	8.67	9.67	3.67	7.67	14.67	2.67	14.67	4.67	6.67	8.67	-1.33	12.67	6.67	5.67	10.67	3.67	4.67
961	61.0423	9.0	10.0	0.0	-3.0	2.0	7.0	10.0	5.0	4.0	6.0	5.0	0.0	6.0	12.0	2.0	2.0	5.0	3.0	3.0	2.0	1.0	2.0	8.0	4.0	1.0	2.0	6.0
992	63.0221	9.0	6.0	10.0	2.0	0.0	2.0	1.0	6.0	8.0	4.0	8.0	15.0	0.0	8.0	4.0	9.0	5.0	8.0	3.0	4.0	5.0	5.0	10.0	5.0	2.0	2.0	12.0
1023	65.0039	11.0	3.0	17.0	18.0	22.0	27.0	23.0	20.0	11.0	26.0	11.0	9.0	14.0	11.0	11.0	8.0	10.0	11.0	7.0	12.0	6.0	4.0	12.0	17.0	11.0	12.0	10.0
1054	66.988	11.33	7.67	3.67	11.67	11.67	4.67	6.67	12.67	10.67	4.67	7.67	10.67	10.67	3.67	19.67	3.67	-0.33	6.67	14.67	2.67	9.67	12.67	7.67	8.67	16.67	4.67	13.67
1085	68.9744	13.67	2.33	2.33	4.33	3.33	7.33	0.33	-3.67	8.33	8.33	-1.67	3.33	10.33	10.33	4.33	-3.67	0.33	-0.67	5.33	1.33	7.33	3.33	7.33	0.33	-1.67	12.33	9.33
1116	70.9634	11.0	2.0	2.0	15.0	4.0	3.0	14.0	3.0	14.0	8.0	-4.0	3.0	10.0	4.0	1.0	10.0	4.0	0.0	6.0	10.0	3.0	4.0	3.0	7.0	3.0	6.0	10.0
1147	72.9551	20.0	6.0	14.0	7.0	10.0	17.0	16.0	7.0	16.0	19.0	11.0	12.0	-3.0	13.0	7.0	16.0	6.0	14.0	5.0	11.0	10.0	16.0	18.0	16.0	9.0	19.0	21.0
1178	74.9495	33.0	-7.0	3.0	0.0	15.0	-1.0	5.0	9.0	-5.0	9.0	4.0	3.0	20.0	10.0	5.0	11.0	5.0	8.0	11.0	-4.0	11.0	4.0	10.0	2.0	4.0	10.0	10.0
1209	76.947	9.67	-2.67	9.33	13.33	13.33	9.33	9.33	17.33	6.33	4.33	-0.67	4.33	7.33	17.33	15.33	7.33	8.33	16.33	1.33	3.33	8.33	6.33	13.33	7.33	11.33	9.33	8.33
1240	78.9476	8.33	3.67	12.67	18.67	6.67	7.67	3.67	12.67	12.67	6.67	18.67	13.67	16.67	9.67	6.67	7.67	14.67	7.67	6.67	13.67	13.67	12.67	2.67	10.67	11.67	8.67	9.67
1271	80.9515	14.67	0.33	4.33	7.33	3.33	2.33	10.33	2.33	2.33	5.33	26.33	12.33	8.33	12.33	9.33	16.33	13.33	23.33	14.33	4.33	8.33	6.33	10.33	12.33	8.33	11.33	21.33
1302	82.9589	17.67	49.33	145.33	108.33	103.33	106.33	95.33	103.33	99.33	95.33	91.33	97.33	81.33	73.33	55.33	45.33	52.33	55.33	35.33	59.33	47.33	40.33	50.33	51.33	49.33	38.33	33.33
1333	84.9698	26.67	45.33	78.33	81.33	71.33	65.33	66.33	58.33	39.33	44.33	40.33	57.33	70.33	46.33	21.33	19.33	39.33	40.33	24.33	34.33	21.33	38.33	28.33	35.33	30.33	19.33	38.33
1364	86.9846	21.0	3.0	14.0	3.0	4.0	18.0	9.0	18.0	16.0	8.0	2.0	14.0	0.0	11.0	15.0	5.0	6.0	9.0	3.0	3.0	10.0	14.0	8.0	3.0	10.0	0.0	-3.0
1395	89.0032	18.33	-1.33	6.67	2.67	7.67	15.67	11.67	17.67	8.67	10.67	11.67	14.67	13.67	11.67	10.67	16.67	5.67	13.67	19.67	12.67	5.67	8.67	22.67	18.67	13.67	17.67	5.67
1426	91.0259	29.33	-5.33	-6.33	-2.33	0.67	-6.33	-7.33	1.67	-1.33	-4.33	1.67	1.67	-2.33	3.67	-4.33	8.67	2.67	7.67	12.67	-8.33	3.67	-1.33	-0.33	9.67	0.67	-2.33	2.67
1457	93.0528	23.0	9.0	7.0	12.0	2.0	2.0	1.0	1.0	-6.0	-2.0	4.0	5.0	4.0	7.0	14.0	21.0	9.0	11.0	13.0	10.0	13.0	16.0	8.0	3.0	14.0	18.0	6.0
1488	95.084	26.67	6.33	-6.67	3.33	-3.67	4.33	6.33	5.33	9.33	13.33	4.33	2.33	-5.67	23.33	-0.67	17.33	6.33	13.33	9.33	13.33	17.33	4.33	3.33	17.33	11.33	5.33	14.33
1519	97.1198	25.0	3.0	0.0	5.0	14.0	-3.0	12.0	6.0	4.0	11.0	25.0	10.0	19.0	40.0	22.0	25.0	27.0	34.0	45.0	36.0	53.0	32.0	32.0	24.0	39.0	40.0	29.0
1550	99.1603	29.0	-1.0	2.0	4.0	4.0	11.0	10.0	-3.0	-2.0	-2.0	-4.0	2.0	4.0	11.0	10.0	2.0	4.0	6.0	10.0	9.0	14.0	15.0	6.0	-2.0	7.0	5.0	12.0
1581	101.206	26.0	-4.0	0.0	12.0	1.0	14.0	15.0	23.0	13.0	-3.0	0.0	4.0	12.0	6.0	15.0	21.0	12.0	13.0	-1.0	8.0	9.0	11.0	3.0	5.0	11.0	7.0	0.0
1612	103.256	26.0	7.0	14.0	10.0	18.0	16.0	9.0	7.0	12.0	25.0	11.0	8.0	8.0	18.0	9.0	13.0	14.0	5.0	17.0	4.0	13.0	-3.0	17.0	13.0	7.0	6.0	11.0
1643	105.311	28.0	-4.0	-6.0	-8.0	-1.0	-2.0	-5.0	10.0	10.0	-8.0	7.0	-1.0	2.0	-7.0	8.0	6.0	-13.0	-1.0	3.0	2.0	-3.0	0.0	-10.0	7.0	3.0	8.0	14.0
1674	107.372	25.0	-4.0	-6.0	-3.0	-5.0	5.0	2.0	4.0	0.0	0.0	-3.0	-5.0	0.0	0.0	-1.0	8.0	3.0	-1.0	0.0	13.0	9.0	-8.0	5.0	-2.0	-1.0	-10.0	10.0
1705	109.438	17.33	6.67	-4.33	9.67	2.67	4.67	3.67	6.67	0.67	8.67	-1.33	4.67	14.67	6.67	8.67	7.67	13.67	11.67	8.67	8.67	-1.33	7.67	11.67	10.67	3.67	8.67	9.67
1736	111.51	19.0	7.0	13.0	14.0	9.0	4.0	10.0	0.0	2.0	9.0	12.0	5.0	4.0	4.0	5.0	4.0	9.0	7.0	5.0	-3.0	5.0	3.0	3.0	4.0	3.0	3.0	-3.0
1767	113.587	14.67	1.33	13.33	14.33	9.33	2.33	3.33	7.33	5.33	8.33	8.33	7.33	9.33	7.33	-0.67	7.33	-1.67	5.33	5.33	7.33	11.33	8.33	0.33	14.33	8.33	7.33	6.33
1798	115.671	15.0	-1.0	2.0	2.0	-5.0	-1.0	1.0	2.0	6.0	6.0	11.0	5.0	3.0	9.0	8.0	4.0	5.0	7.0	-2.0	9.0	5.0	0.0	2.0	4.0	8.0	2.0	0.0
1829	117.76	13.67	-1.67	1.33	-2.67	4.33	6.33	0.33	3.33	1.33	2.33	5.33	3.33	3.33	-3.67	3.33	4.33	0.33	3.33	4.33	3.33	1.33	-0.67	5.33	4.33	9.33	7.33	-0.67
1860	119.856	10.67	-4.67	5.33	2.33	5.33	1.33	13.33	7.33	6.33	6.33	-0.67	4.33	1.33	4.33	12.33	10.33	1.33	3.33	5.33	0.33	0.33	6.33	11.33	2.33	7.33	3.33	10.33
1891	121.958	12.67	4.33	-2.67	-3.67	0.33	-1.67	3.33	-3.67	9.33	4.33	14.33	3.33	7.33	-2.67	-2.67	-5.67	0.33	-3.67	-0.67	-0.67	3.33	0.33	2.33	-0.67	1.33	-0.67	9.33
1922	124.067	11.67	3.33	6.33	0.33	2.33	5.33	0.33	3.33	3.33	6.33	-5.67	0.33	0.33	3.33	-0.67	-0.67	3.33	2.33	0.33	-1.67	0.33	1.33	3.33	6.33	-1.67	5.33	2.33
1953	126.182	8.67	3.33	-1.67	-2.67	-5.67	3.33	3.33	-1.67	6.33	-0.67	0.33	6.33	9.33	1.33	0.33	-0.67	-0.67	0.33	6.33	1.33	1.33	4.33	0.33	3.33	-0.67	1.33	1.33
1984	128.304	10.33	-1.33	-0.33	-0.33	-0.33	3.67	3.67	1.67	1.67	-2.33	5.67	0.67	5.67	-4.33	1.67	2.67	1.67	-5.33	4.67	5.67	-1.33	3.67	-0.33	1.67	10.67	-3.33	5.67
2015	130.433	7.33	11.67	0.67	0.67	6.67	-0.33	6.67	1.67	8.67	-2.33	2.67	0.67	2.67	4.67	5.67	4.67	1.67	-0.33	4.67	4.67	5.67	4.67	4.67	4.67	5.67	0.67	-0.33
2046	132.569	8.0	-3.0	-2.0	-1.0	-1.0	-5.0	6.0	6.0	-1.0	-3.0	1.0	1.0	1.0	-3.0	5.0	-1.0	-4.0	0.0	0.0	1.0	-2.0	-1.0	4.0	0.0	6.0	1.0	2.0
2047	132.638	11.67	-6.67	-7.67	-2.67	-3.67	-2.67	-2.67	1.33	-4.67	-1.67	-1.67	-3.67	-4.67	-3.67	-5.67	-0.67	-5.67	-8.67	-4.67	-4.67	-4.67	-3.67	-5.67	0.33	0.33	-6.67	-1.67