Folder: EDX-Concrete-Analysis/EDX Back Ups and Old Files/EDX Processed Data (part 5)

File: High pH SF 60C 2d.txt
Name: High pH SF 60C 2d
Number of Scans: 29
Positions: [-13.0, -12.75, -12.5, -12.25, -12.0, -11.75, -11.5, -11.25, -11.0, -10.75, -10.5, -10.25, -10.0, -9.75, -9.5, -9.25, -9.0, -8.75, -8.5, -8.25, -8.0, -7.75, -7.5, -7.25, -7.0, -6.75, -6.5, -6.25, -6.0]
Points per Scan: 2048
Sample Edge: 3
Scans Off Sample: [0, 1, 2]
Conversion Features: [(275, 17444.3), (309, 19608.3), (913, 57981.7), (934, 59318.24), (1058, 67244.3)]
Degree of Fit: 3
Fit Coeffecients: [ 8.59183e-07 -0.001482  64.3003 -144.207]
pH: High
Steel Fiber: True
Aging Temp.: 60
Aging Atm.: 100% CO2
Aging Humidity: None
Aging Time: 2

*********
#Bins	Energy [keV]	Avg. Background	-12.25	-12.0	-11.75	-11.5	-11.25	-11.0	-10.75	-10.5	-10.25	-10.0	-9.75	-9.5	-9.25	-9.0	-8.75	-8.5	-8.25	-8.0	-7.75	-7.5	-7.25	-7.0	-6.75	-6.5	-6.25	-6.0
31	1.848	14.67	-1.67	0.33	1.33	3.33	-3.67	3.33	-4.67	2.33	-1.67	1.33	-1.67	-0.67	-0.67	4.33	-3.67	4.33	-4.67	6.33	0.33	2.33	4.33	-3.67	1.33	0.33	0.33	2.33
63	3.901	0.33	-0.33	-0.33	-0.33	0.67	-0.33	-0.33	0.67	-0.33	-0.33	0.67	-0.33	0.67	1.67	-0.33	0.67	-0.33	-0.33	-0.33	1.67	-0.33	0.67	-0.33	-0.33	-0.33	-0.33	-0.33
95	5.952	0.67	0.33	0.33	0.33	-0.67	1.33	1.33	0.33	0.33	1.33	-0.67	0.33	1.33	2.33	-0.67	-0.67	0.33	0.33	-0.67	-0.67	-0.67	-0.67	2.33	-0.67	0.33	-0.67	0.33
127	8.0	6.67	-2.67	-1.67	-4.67	-1.67	-2.67	-1.67	-2.67	-0.67	3.33	-1.67	-1.67	0.33	-2.67	1.33	2.33	1.33	-4.67	-1.67	-3.67	-1.67	-3.67	-0.67	0.33	-2.67	1.33	1.33
159	10.046	8.67	0.33	0.33	0.33	4.33	1.33	5.33	0.33	2.33	3.33	3.33	-3.67	7.33	0.33	6.33	-1.67	6.33	-0.67	1.33	1.33	-0.67	8.33	7.33	-0.67	9.33	1.33	3.33
191	12.089	11.67	1.33	3.33	2.33	0.33	-1.67	-1.67	4.33	-0.67	-1.67	3.33	2.33	0.33	-4.67	1.33	-0.67	-5.67	2.33	-0.67	-3.67	0.33	-0.67	2.33	-7.67	0.33	6.33	2.33
223	14.131	8.67	2.33	6.33	-1.67	4.33	8.33	1.33	11.33	4.33	0.33	2.33	2.33	2.33	6.33	-1.67	1.33	3.33	4.33	13.33	4.33	8.33	9.33	0.33	4.33	-0.67	2.33	7.33
255	16.17	5.67	4.33	2.33	5.33	6.33	0.33	1.33	4.33	-1.67	9.33	10.33	2.33	6.33	15.33	6.33	1.33	7.33	9.33	2.33	5.33	10.33	8.33	7.33	1.33	7.33	4.33	4.33
287	18.208	9.33	0.67	1.67	1.67	5.67	8.67	-1.33	0.67	1.67	4.67	10.67	2.67	-1.33	1.67	-5.33	6.67	5.67	3.67	-0.33	1.67	1.67	6.67	-3.33	5.67	-1.33	3.67	3.67
319	20.245	8.0	3.0	0.0	5.0	2.0	4.0	6.0	4.0	2.0	3.0	-1.0	5.0	-3.0	-3.0	11.0	6.0	4.0	3.0	2.0	7.0	2.0	3.0	8.0	4.0	6.0	4.0	11.0
351	22.28	11.0	-1.0	1.0	10.0	0.0	2.0	-2.0	2.0	-1.0	1.0	0.0	-1.0	-4.0	-2.0	1.0	-4.0	5.0	-9.0	-1.0	-1.0	2.0	1.0	1.0	2.0	-1.0	3.0	-7.0
383	24.314	8.0	2.0	0.0	-4.0	3.0	2.0	-2.0	0.0	-3.0	0.0	-2.0	6.0	5.0	1.0	2.0	2.0	2.0	2.0	2.0	5.0	5.0	3.0	2.0	8.0	7.0	6.0	-2.0
415	26.347	7.33	4.67	3.67	-0.33	0.67	-1.33	1.67	3.67	-5.33	-2.33	-0.33	-4.33	3.67	1.67	4.67	3.67	2.67	-1.33	-0.33	-2.33	-3.33	2.67	1.67	-1.33	14.67	6.67	0.67
447	28.379	10.33	0.67	-1.33	-0.33	0.67	-0.33	0.67	-5.33	-4.33	-3.33	-7.33	-4.33	-7.33	-6.33	-4.33	-2.33	-7.33	-0.33	0.67	-1.33	-1.33	1.67	-3.33	-2.33	-0.33	-2.33	0.67
479	30.41	9.33	-4.33	-3.33	-1.33	-1.33	-3.33	-0.33	-3.33	-1.33	-2.33	-4.33	-5.33	-0.33	-3.33	2.67	-3.33	-6.33	-2.33	0.67	0.67	-1.33	2.67	-2.33	-0.33	-1.33	-3.33	-4.33
511	32.441	7.67	-3.67	1.33	-4.67	0.33	1.33	-0.67	-3.67	-3.67	2.33	-0.67	2.33	-2.67	-4.67	-1.67	-2.67	-2.67	-1.67	-1.67	-1.67	-1.67	-1.67	-1.67	-2.67	-0.67	3.33	0.33
543	34.471	8.0	-1.0	-1.0	-3.0	-1.0	-3.0	-2.0	3.0	-3.0	-4.0	-3.0	1.0	-3.0	-2.0	3.0	-5.0	-1.0	-1.0	1.0	-1.0	-3.0	3.0	-1.0	-1.0	-3.0	0.0	-1.0
575	36.502	6.67	-1.67	0.33	-3.67	0.33	1.33	2.33	2.33	-1.67	-4.67	-3.67	-0.67	-4.67	-2.67	-1.67	-2.67	1.33	-0.67	0.33	-2.67	0.33	0.33	-2.67	-2.67	1.33	4.33	-3.67
607	38.532	5.67	0.33	-0.67	-3.67	3.33	-1.67	-1.67	0.33	1.33	4.33	-0.67	-3.67	1.33	-2.67	-3.67	-0.67	-0.67	-1.67	0.33	-0.67	-0.67	3.33	1.33	2.33	-2.67	-2.67	1.33
639	40.563	3.67	1.33	5.33	3.33	-0.67	0.33	3.33	1.33	1.33	2.33	-0.67	0.33	1.33	3.33	4.33	2.33	0.33	7.33	3.33	3.33	5.33	-1.67	-0.67	1.33	7.33	3.33	4.33
671	42.594	5.0	-2.0	1.0	0.0	5.0	-2.0	5.0	-2.0	5.0	4.0	0.0	0.0	1.0	3.0	6.0	0.0	-1.0	1.0	5.0	4.0	-1.0	-1.0	1.0	1.0	-1.0	0.0	2.0
703	44.625	11.33	-5.33	-1.33	-5.33	-8.33	0.67	-1.33	-1.33	-8.33	-6.33	-4.33	-3.33	-6.33	-5.33	-5.33	-4.33	-5.33	-6.33	-6.33	-2.33	-3.33	-5.33	-3.33	-0.33	-7.33	-4.33	-4.33
735	46.657	10.0	-2.0	-4.0	-3.0	-1.0	0.0	1.0	-7.0	-5.0	1.0	-4.0	-7.0	-1.0	2.0	4.0	-7.0	0.0	-6.0	0.0	-4.0	-3.0	-2.0	-4.0	-1.0	-5.0	-1.0	-2.0
767	48.69	12.67	-4.67	-1.67	-1.67	-2.67	-4.67	-7.67	-1.67	-5.67	-1.67	-2.67	-3.67	-2.67	-2.67	-3.67	2.33	-5.67	-2.67	-2.67	-1.67	-3.67	-1.67	-3.67	-0.67	-7.67	-6.67	-3.67
799	50.724	12.67	-0.67	-1.67	-2.67	2.33	3.33	1.33	19.33	14.33	9.33	15.33	3.33	8.33	7.33	5.33	11.33	3.33	1.33	10.33	5.33	2.33	6.33	10.33	6.33	3.33	3.33	4.33
831	52.759	14.67	-3.67	-6.67	-1.67	-3.67	-2.67	-4.67	3.33	5.33	1.33	1.33	2.33	4.33	-0.67	0.33	-0.67	0.33	-0.67	-1.67	-0.67	1.33	-0.67	9.33	2.33	2.33	-0.67	-5.67
863	54.795	16.67	-4.67	-1.67	-4.67	-3.67	-2.67	-4.67	-4.67	-6.67	-6.67	1.33	-4.67	-1.67	1.33	-3.67	-4.67	-8.67	-13.67	-6.67	-5.67	-3.67	-0.67	-5.67	2.33	-7.67	-6.67	-7.67
895	56.833	19.67	-6.67	2.33	2.33	-7.67	-4.67	-3.67	-5.67	-5.67	-5.67	-4.67	-11.67	-4.67	-2.67	-11.67	-9.67	-8.67	-13.67	-11.67	-11.67	-6.67	-1.67	-6.67	-7.67	-7.67	-10.67	-5.67
927	58.873	19.33	-2.33	-3.33	-11.33	-9.33	0.67	-0.33	-4.33	-2.33	-3.33	-2.33	-2.33	-9.33	-5.33	-4.33	-6.33	-3.33	-0.33	1.67	-3.33	-1.33	-2.33	-8.33	-5.33	-2.33	-7.33	-7.33
959	60.915	15.67	1.33	-2.67	-0.67	3.33	-6.67	1.33	-0.67	-3.67	-2.67	-0.67	-4.67	1.33	-4.67	-3.67	5.33	1.33	-0.67	2.33	-0.67	4.33	0.33	-2.67	0.33	-2.67	-2.67	-6.67
991	62.958	17.0	-4.0	2.0	-2.0	3.0	-1.0	4.0	-2.0	-5.0	-8.0	-1.0	1.0	3.0	4.0	-3.0	-2.0	1.0	-3.0	-3.0	1.0	-1.0	-5.0	-5.0	-8.0	-3.0	2.0	-2.0
1023	65.004	18.0	-2.0	14.0	9.0	5.0	3.0	11.0	19.0	10.0	-2.0	6.0	8.0	0.0	13.0	8.0	6.0	11.0	12.0	2.0	3.0	0.0	2.0	9.0	5.0	-4.0	-1.0	4.0
1055	67.052	21.67	-5.67	0.33	-1.67	2.33	4.33	5.33	5.33	-0.67	-6.67	-2.67	-1.67	0.33	2.33	3.33	-0.67	-1.67	-5.67	-0.67	-9.67	-0.67	-1.67	-1.67	2.33	-4.67	-1.67	0.33
1087	69.103	18.33	-5.33	-4.33	-1.33	0.67	3.67	1.67	-1.33	-0.33	0.67	0.67	-0.33	0.67	4.67	9.67	0.67	-4.33	1.67	-9.33	-0.33	-6.33	-1.33	-0.33	4.67	-2.33	-3.33	-4.33
1119	71.156	13.33	13.67	5.67	7.67	3.67	6.67	10.67	7.67	2.67	5.67	4.67	10.67	8.67	-3.33	7.67	11.67	6.67	2.67	1.67	11.67	1.67	1.67	3.67	7.67	8.67	6.67	8.67
1151	73.212	31.0	-2.0	-5.0	5.0	-4.0	-1.0	8.0	6.0	4.0	1.0	0.0	3.0	18.0	0.0	6.0	9.0	2.0	3.0	3.0	2.0	4.0	16.0	7.0	7.0	6.0	18.0	0.0
1183	75.272	41.33	11.67	12.67	8.67	9.67	2.67	9.67	19.67	7.67	11.67	7.67	5.67	12.67	7.67	13.67	19.67	23.67	5.67	27.67	13.67	0.67	10.67	14.67	15.67	11.67	7.67	8.67
1215	77.334	15.67	-5.67	9.33	12.33	6.33	-0.67	15.33	8.33	10.33	16.33	5.33	14.33	15.33	14.33	9.33	3.33	7.33	6.33	3.33	-1.67	10.33	11.33	11.33	0.33	11.33	7.33	8.33
1247	79.4	19.33	-9.33	0.67	8.67	8.67	3.67	7.67	6.67	6.67	-0.33	9.67	9.67	4.67	-4.33	4.67	-3.33	4.67	8.67	1.67	6.67	13.67	2.67	1.67	1.67	3.67	1.67	-5.33
1279	81.469	15.67	12.33	17.33	14.33	12.33	13.33	13.33	15.33	29.33	21.33	14.33	15.33	21.33	9.33	18.33	31.33	20.33	19.33	25.33	20.33	17.33	13.33	28.33	16.33	25.33	9.33	13.33
1311	83.542	17.33	112.67	221.67	224.67	253.67	208.67	213.67	130.67	127.67	119.67	93.67	102.67	97.67	89.67	106.67	82.67	75.67	92.67	83.67	93.67	97.67	61.67	103.67	82.67	89.67	89.67	94.67
1343	85.619	35.0	1.0	19.0	5.0	12.0	18.0	17.0	5.0	5.0	-3.0	5.0	5.0	17.0	4.0	11.0	11.0	-8.0	8.0	14.0	-1.0	5.0	17.0	8.0	6.0	6.0	1.0	7.0
1375	87.7	26.67	2.33	11.33	4.33	11.33	9.33	15.33	1.33	10.33	13.33	11.33	15.33	5.33	13.33	10.33	7.33	10.33	15.33	14.33	15.33	11.33	15.33	10.33	11.33	7.33	5.33	16.33
1407	89.786	21.33	9.67	-2.33	13.67	28.67	6.67	11.67	24.67	16.67	11.67	8.67	14.67	14.67	13.67	22.67	5.67	19.67	13.67	11.67	6.67	6.67	8.67	13.67	19.67	12.67	2.67	11.67
1439	91.875	27.0	4.0	11.0	1.0	6.0	5.0	11.0	12.0	8.0	15.0	7.0	12.0	11.0	7.0	19.0	22.0	16.0	9.0	11.0	8.0	11.0	3.0	5.0	-2.0	11.0	4.0	7.0
1471	93.97	27.33	18.67	1.67	14.67	3.67	1.67	12.67	7.67	7.67	9.67	17.67	14.67	24.67	1.67	4.67	6.67	16.67	12.67	10.67	2.67	11.67	8.67	6.67	10.67	10.67	11.67	17.67
1503	96.069	29.33	4.67	10.67	-6.33	7.67	11.67	14.67	16.67	24.67	13.67	1.67	8.67	13.67	20.67	17.67	9.67	15.67	20.67	11.67	12.67	33.67	21.67	11.67	19.67	7.67	22.67	16.67
1535	98.172	36.0	2.0	3.0	17.0	-2.0	0.0	20.0	3.0	17.0	13.0	13.0	17.0	4.0	13.0	16.0	29.0	11.0	24.0	24.0	10.0	18.0	23.0	21.0	20.0	17.0	16.0	10.0
1567	100.281	37.0	-12.0	-3.0	-1.0	-3.0	9.0	0.0	15.0	4.0	3.0	3.0	-2.0	-3.0	8.0	3.0	-1.0	-3.0	1.0	5.0	1.0	4.0	-3.0	5.0	-9.0	-5.0	-9.0	11.0
1599	102.395	32.67	-2.67	8.33	18.33	25.33	17.33	16.33	12.33	3.33	8.33	2.33	12.33	4.33	8.33	7.33	1.33	4.33	8.33	1.33	1.33	8.33	6.33	8.33	16.33	10.33	-0.67	6.33
1631	104.515	34.33	-9.33	4.67	4.67	8.67	-2.33	-0.33	4.67	-2.33	8.67	10.67	-6.33	-0.33	3.67	4.67	2.67	5.67	5.67	-2.33	-5.33	-3.33	-1.33	7.67	15.67	1.67	2.67	3.67
1663	106.64	24.0	-1.0	8.0	7.0	-7.0	-1.0	5.0	-3.0	5.0	6.0	1.0	-4.0	3.0	3.0	11.0	12.0	5.0	4.0	9.0	17.0	19.0	3.0	10.0	9.0	13.0	8.0	7.0
1695	108.771	35.0	-6.0	-1.0	-4.0	-9.0	-5.0	-5.0	-7.0	-4.0	-13.0	-8.0	1.0	-5.0	-6.0	-9.0	3.0	-14.0	-9.0	-8.0	-10.0	-7.0	-4.0	-12.0	-10.0	-13.0	-8.0	0.0
1727	110.908	20.67	13.33	-1.67	-4.67	2.33	-3.67	5.33	7.33	14.33	-0.67	-2.67	3.33	4.33	1.33	14.33	7.33	6.33	-3.67	11.33	1.33	0.33	11.33	19.33	4.33	9.33	3.33	8.33
1759	113.051	18.67	6.33	8.33	13.33	5.33	13.33	8.33	9.33	7.33	9.33	9.33	14.33	0.33	4.33	-1.67	13.33	10.33	-1.67	8.33	2.33	6.33	5.33	-0.67	2.33	10.33	11.33	6.33
1791	115.2	21.33	-1.33	1.67	-15.33	-1.33	0.67	-8.33	-3.33	-6.33	-9.33	-5.33	11.67	-7.33	-0.33	-10.33	-2.33	-3.33	-5.33	-4.33	-6.33	-2.33	3.67	-2.33	1.67	9.67	-4.33	-5.33
1823	117.355	15.0	7.0	4.0	5.0	6.0	3.0	1.0	2.0	7.0	-6.0	-4.0	-5.0	8.0	-3.0	0.0	6.0	8.0	7.0	6.0	1.0	6.0	3.0	4.0	8.0	6.0	10.0	-1.0
1855	119.518	20.67	-5.67	-4.67	-5.67	-12.67	0.33	-8.67	-5.67	1.33	-3.67	-4.67	-4.67	-8.67	-3.67	-4.67	-0.67	-5.67	-3.67	-7.67	-5.67	-4.67	-8.67	-3.67	-10.67	-12.67	-3.67	-5.67
1887	121.686	14.67	3.33	-5.67	-2.67	1.33	-4.67	11.33	-0.67	3.33	-3.67	-3.67	-5.67	4.33	1.33	3.33	-1.67	-1.67	-3.67	-4.67	10.33	-4.67	-6.67	-5.67	-2.67	0.33	-0.67	3.33
1919	123.862	13.0	4.0	7.0	-1.0	-1.0	1.0	-1.0	-4.0	3.0	2.0	0.0	8.0	-3.0	6.0	2.0	5.0	-2.0	0.0	2.0	-5.0	-1.0	12.0	1.0	2.0	7.0	0.0	10.0
1951	126.045	7.33	1.67	5.67	3.67	8.67	0.67	4.67	5.67	1.67	1.67	6.67	3.67	-0.33	2.67	3.67	7.67	6.67	1.67	6.67	0.67	4.67	7.67	4.67	2.67	9.67	5.67	-0.33
1983	128.235	9.33	2.67	-0.33	8.67	-1.33	-0.33	1.67	5.67	3.67	2.67	-3.33	4.67	-3.33	2.67	-3.33	0.67	1.67	2.67	1.67	-4.33	-1.33	-1.33	4.67	1.67	1.67	1.67	3.67
2015	130.433	5.0	6.0	1.0	-1.0	4.0	3.0	6.0	8.0	3.0	3.0	2.0	3.0	6.0	4.0	3.0	4.0	13.0	6.0	2.0	6.0	2.0	2.0	6.0	2.0	0.0	7.0	2.0
2047	132.638	6.33	4.67	-0.33	5.67	4.67	0.67	2.67	0.67	0.67	1.67	1.67	6.67	0.67	-3.33	0.67	6.67	2.67	7.67	0.67	5.67	0.67	3.67	2.67	-0.33	0.67	2.67	-4.33

File: High pH SF 60C 4d.txt
Name: High pH SF 60C 4d
Number of Scans: 29
Positions: [-13.0, -12.75, -12.5, -12.25, -12.0, -11.75, -11.5, -11.25, -11.0, -10.75, -10.5, -10.25, -10.0, -9.75, -9.5, -9.25, -9.0, -8.75, -8.5, -8.25, -8.0, -7.75, -7.5, -7.25, -7.0, -6.75, -6.5, -6.25, -6.0]
Points per Scan: 2048
Sample Edge: 3
Scans Off Sample: [0, 1, 2]
Conversion Features: [(275, 17444.3), (309, 19608.3), (913, 57981.7), (934, 59318.24), (1058, 67244.3)]
Degree of Fit: 3
Fit Coeffecients: [ 8.59183e-07 -0.001482  64.3003 -144.207]
pH: High
Steel Fiber: True
Aging Temp.: 60
Aging Atm.: 100% CO2
Aging Humidity: None
Aging Time: 4

*********
#Bins	Energy [keV]	Avg. Background	-12.25	-12.0	-11.75	-11.5	-11.25	-11.0	-10.75	-10.5	-10.25	-10.0	-9.75	-9.5	-9.25	-9.0	-8.75	-8.5	-8.25	-8.0	-7.75	-7.5	-7.25	-7.0	-6.75	-6.5	-6.25	-6.0
31	1.848	16.0	1.0	-3.0	7.0	1.0	1.0	-1.0	0.0	5.0	0.0	3.0	3.0	-5.0	-5.0	0.0	0.0	0.0	-2.0	7.0	-4.0	2.0	-3.0	2.0	9.0	-6.0	0.0	1.0
63	3.901	0.33	-0.33	0.67	1.67	-0.33	0.67	-0.33	-0.33	-0.33	-0.33	-0.33	1.67	-0.33	-0.33	0.67	-0.33	0.67	-0.33	-0.33	-0.33	0.67	-0.33	0.67	0.67	-0.33	-0.33	-0.33
95	5.952	0.67	2.33	-0.67	0.33	-0.67	0.33	0.33	2.33	0.33	0.33	1.33	-0.67	2.33	0.33	0.33	0.33	-0.67	-0.67	1.33	-0.67	0.33	-0.67	1.33	-0.67	1.33	0.33	-0.67
127	8.0	5.33	-2.33	-3.33	-1.33	0.67	-2.33	-5.33	-2.33	7.67	-0.33	-2.33	0.67	1.67	2.67	-1.33	2.67	-1.33	3.67	-2.33	-1.33	0.67	-2.33	0.67	0.67	0.67	-2.33	5.67
159	10.046	9.67	-2.67	0.33	-1.67	8.33	5.33	0.33	-2.67	3.33	2.33	-3.67	6.33	2.33	4.33	3.33	0.33	6.33	-0.67	6.33	-2.67	2.33	1.33	1.33	9.33	-2.67	0.33	5.33
191	12.089	12.0	0.0	4.0	-2.0	0.0	-5.0	7.0	3.0	-3.0	-4.0	0.0	-2.0	-2.0	3.0	6.0	0.0	1.0	1.0	5.0	-1.0	-2.0	0.0	3.0	-2.0	6.0	1.0	2.0
223	14.131	8.33	2.67	11.67	1.67	3.67	1.67	7.67	2.67	-0.33	1.67	6.67	0.67	2.67	3.67	7.67	7.67	3.67	3.67	12.67	-0.33	4.67	0.67	5.67	8.67	-1.33	-1.33	4.67
255	16.17	10.67	1.33	-2.67	-2.67	1.33	0.33	5.33	-0.67	1.33	3.33	1.33	0.33	-1.67	-6.67	4.33	1.33	6.33	4.33	-5.67	1.33	-1.67	7.33	2.33	-0.67	7.33	0.33	3.33
287	18.208	9.33	2.67	2.67	1.67	-3.33	0.67	1.67	4.67	-1.33	-2.33	1.67	2.67	-1.33	1.67	-2.33	-3.33	-1.33	4.67	7.67	1.67	1.67	3.67	-1.33	6.67	-1.33	-3.33	4.67
319	20.245	7.33	1.67	6.67	4.67	5.67	0.67	-1.33	0.67	3.67	0.67	7.67	3.67	0.67	6.67	5.67	6.67	-2.33	0.67	9.67	2.67	3.67	0.67	3.67	2.67	5.67	8.67	6.67
351	22.28	12.67	-5.67	-6.67	-6.67	-2.67	-2.67	-4.67	-6.67	-5.67	-1.67	-2.67	-0.67	-3.67	7.33	1.33	0.33	5.33	-3.67	-1.67	5.33	-3.67	-2.67	0.33	-6.67	0.33	-5.67	-2.67
383	24.314	10.67	-0.67	-3.67	1.33	1.33	4.33	0.33	-4.67	-3.67	2.33	1.33	0.33	-2.67	0.33	-5.67	-1.67	6.33	-1.67	-7.67	1.33	3.33	-5.67	-4.67	0.33	-1.67	1.33	4.33
415	26.347	8.0	0.0	6.0	-1.0	3.0	-2.0	3.0	4.0	0.0	-1.0	4.0	3.0	6.0	3.0	-2.0	-2.0	-1.0	1.0	-3.0	3.0	-1.0	-2.0	-1.0	3.0	-1.0	1.0	0.0
447	28.379	7.0	1.0	1.0	1.0	-1.0	-5.0	-1.0	2.0	1.0	1.0	-1.0	2.0	-3.0	3.0	1.0	5.0	1.0	-3.0	1.0	-3.0	1.0	4.0	3.0	1.0	0.0	2.0	0.0
479	30.41	7.0	-2.0	-1.0	-2.0	-1.0	1.0	0.0	-2.0	-4.0	-1.0	0.0	2.0	1.0	-2.0	4.0	1.0	-2.0	1.0	-2.0	3.0	-2.0	0.0	8.0	8.0	6.0	0.0	0.0
511	32.441	6.67	0.33	-2.67	-2.67	3.33	3.33	2.33	4.33	-4.67	1.33	-3.67	1.33	-0.67	-0.67	3.33	2.33	-0.67	-2.67	2.33	-0.67	2.33	-0.67	-1.67	2.33	-1.67	-1.67	2.33
543	34.471	6.33	-0.33	-3.33	1.67	3.67	0.67	-1.33	1.67	3.67	-0.33	-2.33	1.67	-3.33	2.67	-2.33	3.67	-2.33	-1.33	1.67	3.67	-0.33	-2.33	2.67	0.67	-0.33	-0.33	-2.33
575	36.502	7.67	0.33	-1.67	-1.67	-2.67	-1.67	-3.67	-0.67	-3.67	-1.67	-0.67	0.33	-6.67	-4.67	-2.67	-3.67	0.33	-5.67	0.33	-5.67	-4.67	-5.67	0.33	-4.67	4.33	3.33	-3.67
607	38.532	4.67	3.33	1.33	5.33	0.33	-2.67	1.33	-2.67	-0.67	0.33	2.33	6.33	-0.67	4.33	6.33	4.33	2.33	1.33	0.33	2.33	3.33	2.33	0.33	4.33	1.33	-0.67	1.33
639	40.563	7.33	1.67	-3.33	-2.33	-3.33	-2.33	-4.33	1.67	-3.33	-1.33	-2.33	-2.33	1.67	-2.33	-3.33	3.67	-0.33	-4.33	-0.33	-0.33	0.67	-0.33	-4.33	-0.33	-2.33	2.67	2.67
671	42.594	12.0	-8.0	-8.0	-11.0	-6.0	-7.0	-9.0	-2.0	-8.0	-5.0	-3.0	-9.0	-8.0	-4.0	-4.0	-6.0	-7.0	-6.0	-8.0	-5.0	-9.0	-5.0	-7.0	-6.0	-3.0	-7.0	-9.0
703	44.625	10.33	-4.33	-3.33	-6.33	-5.33	-3.33	-4.33	-5.33	-4.33	-2.33	-4.33	0.67	-3.33	-4.33	-4.33	-5.33	3.67	-6.33	-4.33	-5.33	-2.33	-3.33	-3.33	-1.33	-3.33	-1.33	6.67
735	46.657	12.67	-2.67	-7.67	-3.67	-2.67	-7.67	-8.67	-1.67	-9.67	-4.67	-0.67	-9.67	-5.67	-3.67	-9.67	-2.67	-3.67	-5.67	-6.67	-8.67	-5.67	-6.67	-11.67	-5.67	-4.67	-6.67	-4.67
767	48.69	16.0	-10.0	-6.0	-5.0	-7.0	-4.0	-8.0	-4.0	-11.0	-6.0	-11.0	-8.0	-9.0	-7.0	-11.0	-4.0	-2.0	-11.0	-4.0	-5.0	-6.0	-11.0	-7.0	-5.0	-5.0	-8.0	-4.0
799	50.724	14.67	-2.67	-4.67	2.33	-3.67	-0.67	4.33	2.33	-1.67	4.33	6.33	-3.67	12.33	10.33	0.33	2.33	2.33	2.33	6.33	1.33	7.33	9.33	2.33	1.33	-4.67	-1.67	8.33
831	52.759	17.67	-9.67	-6.67	-2.67	-2.67	-1.67	-7.67	-3.67	-3.67	-7.67	-3.67	-1.67	1.33	-9.67	-2.67	2.33	0.33	-3.67	-1.67	-0.67	-6.67	1.33	-2.67	-0.67	-1.67	0.33	-8.67
863	54.795	18.33	-7.33	-2.33	-6.33	-5.33	-7.33	-6.33	-4.33	-8.33	-7.33	-0.33	-5.33	-7.33	-10.33	-4.33	-10.33	-4.33	-2.33	-4.33	-5.33	-7.33	-5.33	-3.33	-9.33	-6.33	-7.33	-6.33
895	56.833	19.33	-12.33	-5.33	-10.33	2.67	1.67	-6.33	-11.33	-3.33	-5.33	-7.33	-9.33	-4.33	-8.33	-6.33	-9.33	-6.33	-7.33	-6.33	-8.33	-10.33	-2.33	-8.33	-4.33	-12.33	-4.33	-3.33
927	58.873	21.0	-1.0	-4.0	-10.0	-7.0	-5.0	-7.0	-6.0	-7.0	4.0	-2.0	-6.0	-5.0	-8.0	1.0	-6.0	-4.0	2.0	-11.0	-3.0	-13.0	-3.0	-3.0	-7.0	-7.0	-10.0	1.0
959	60.915	18.0	-4.0	0.0	-3.0	0.0	-5.0	3.0	-7.0	-7.0	-4.0	-4.0	-7.0	-6.0	-1.0	-4.0	-7.0	2.0	-4.0	-2.0	-1.0	-6.0	-1.0	-5.0	-11.0	2.0	-3.0	-10.0
991	62.958	25.0	-17.0	-4.0	-8.0	-11.0	-9.0	-13.0	-12.0	-8.0	-10.0	-2.0	-11.0	-17.0	-17.0	-11.0	-6.0	-10.0	-6.0	-13.0	-10.0	-14.0	-16.0	-11.0	-12.0	-16.0	-12.0	-12.0
1023	65.004	19.0	9.0	1.0	12.0	13.0	9.0	7.0	11.0	13.0	6.0	-4.0	3.0	1.0	2.0	0.0	8.0	3.0	7.0	1.0	-5.0	5.0	4.0	3.0	7.0	1.0	1.0	0.0
1055	67.052	14.0	8.0	9.0	7.0	6.0	3.0	10.0	7.0	5.0	-2.0	2.0	6.0	0.0	6.0	8.0	4.0	6.0	5.0	1.0	4.0	3.0	-1.0	6.0	7.0	4.0	12.0	4.0
1087	69.103	19.0	-6.0	0.0	-2.0	2.0	8.0	-3.0	-5.0	-2.0	-1.0	0.0	11.0	-5.0	-8.0	-5.0	8.0	1.0	8.0	-1.0	-1.0	-5.0	-4.0	3.0	2.0	-3.0	0.0	2.0
1119	71.156	14.33	8.67	1.67	2.67	-1.33	3.67	0.67	-1.33	-0.33	4.67	-3.33	1.67	-2.33	6.67	-2.33	5.67	3.67	-3.33	7.67	0.67	1.67	7.67	2.67	0.67	-0.33	-2.33	1.67
1151	73.212	26.67	1.33	8.33	9.33	9.33	4.33	5.33	10.33	-4.67	4.33	-0.67	6.33	-2.67	9.33	1.33	10.33	-0.67	-2.67	9.33	1.33	8.33	5.33	3.33	5.33	5.33	4.33	7.33
1183	75.272	44.33	-7.33	-2.33	-5.33	-11.33	-5.33	-4.33	-3.33	-0.33	0.67	8.67	4.67	2.67	3.67	4.67	0.67	-0.33	-1.33	1.67	-0.33	8.67	-0.33	-3.33	15.67	12.67	4.67	3.67
1215	77.334	16.0	-1.0	7.0	1.0	-4.0	7.0	5.0	11.0	8.0	-2.0	5.0	7.0	6.0	10.0	-1.0	10.0	6.0	-1.0	9.0	1.0	5.0	-3.0	2.0	3.0	0.0	0.0	0.0
1247	79.4	15.67	2.33	2.33	11.33	8.33	13.33	4.33	8.33	8.33	9.33	7.33	10.33	4.33	8.33	1.33	16.33	4.33	0.33	2.33	7.33	9.33	3.33	10.33	10.33	15.33	8.33	4.33
1279	81.469	19.67	-5.67	1.33	6.33	14.33	5.33	13.33	16.33	17.33	13.33	14.33	16.33	-3.67	7.33	18.33	15.33	11.33	6.33	16.33	16.33	3.33	5.33	8.33	13.33	1.33	15.33	17.33
1311	83.542	20.67	121.33	250.33	274.33	173.33	146.33	123.33	103.33	87.33	89.33	112.33	93.33	82.33	64.33	86.33	91.33	65.33	92.33	76.33	76.33	82.33	68.33	73.33	82.33	77.33	73.33	80.33
1343	85.619	33.0	-9.0	2.0	18.0	8.0	3.0	1.0	6.0	-4.0	-4.0	2.0	1.0	-2.0	4.0	-9.0	5.0	2.0	6.0	6.0	3.0	11.0	5.0	8.0	10.0	10.0	-3.0	9.0
1375	87.7	27.0	0.0	2.0	8.0	11.0	-3.0	12.0	-1.0	6.0	3.0	5.0	3.0	6.0	-5.0	15.0	-1.0	-1.0	0.0	8.0	14.0	8.0	8.0	6.0	3.0	19.0	4.0	5.0
1407	89.786	19.33	5.67	6.67	12.67	13.67	7.67	9.67	8.67	2.67	13.67	17.67	7.67	20.67	16.67	18.67	12.67	3.67	6.67	11.67	8.67	1.67	17.67	19.67	5.67	7.67	10.67	0.67
1439	91.875	30.33	-5.33	-13.33	-1.33	11.67	3.67	-2.33	10.67	11.67	0.67	11.67	-0.33	-4.33	2.67	8.67	-1.33	13.67	-4.33	-3.33	15.67	-2.33	5.67	1.67	1.67	2.67	1.67	2.67
1471	93.97	29.33	-3.33	6.67	5.67	-7.33	7.67	-0.33	5.67	-3.33	-2.33	-0.33	8.67	5.67	2.67	5.67	-3.33	-0.33	0.67	2.67	8.67	-2.33	5.67	-0.33	6.67	-11.33	5.67	-6.33
1503	96.069	31.0	11.0	-3.0	-1.0	1.0	14.0	6.0	7.0	13.0	23.0	27.0	20.0	16.0	13.0	13.0	2.0	16.0	-1.0	10.0	1.0	9.0	14.0	18.0	22.0	18.0	13.0	3.0
1535	98.172	33.33	10.67	-2.33	2.67	6.67	8.67	5.67	11.67	15.67	15.67	17.67	14.67	20.67	17.67	18.67	2.67	8.67	12.67	11.67	10.67	18.67	30.67	16.67	18.67	19.67	14.67	15.67
1567	100.281	29.67	0.33	5.33	-0.67	3.33	7.33	12.33	-0.67	12.33	-2.67	2.33	3.33	8.33	1.33	7.33	11.33	7.33	15.33	7.33	7.33	2.33	7.33	-2.67	6.33	19.33	7.33	8.33
1599	102.395	29.33	5.67	20.67	4.67	3.67	4.67	9.67	-6.33	19.67	10.67	6.67	11.67	10.67	23.67	2.67	4.67	7.67	25.67	8.67	10.67	16.67	13.67	6.67	4.67	11.67	7.67	7.67
1631	104.515	28.33	2.67	2.67	1.67	14.67	-1.33	1.67	1.67	9.67	1.67	1.67	5.67	7.67	-5.33	2.67	12.67	1.67	3.67	-3.33	0.67	6.67	-3.33	11.67	-0.33	6.67	2.67	6.67
1663	106.64	24.0	-1.0	1.0	7.0	3.0	8.0	10.0	3.0	-2.0	-1.0	7.0	8.0	12.0	10.0	4.0	2.0	-1.0	8.0	-3.0	-1.0	5.0	-2.0	4.0	10.0	8.0	9.0	-8.0
1695	108.771	25.0	-1.0	-4.0	-7.0	-5.0	2.0	-11.0	2.0	-1.0	-4.0	10.0	-2.0	-9.0	-4.0	-2.0	1.0	-3.0	-4.0	-5.0	-2.0	-6.0	-4.0	4.0	-1.0	-4.0	14.0	3.0
1727	110.908	20.0	-3.0	3.0	5.0	6.0	2.0	3.0	4.0	-1.0	-5.0	-3.0	4.0	3.0	9.0	2.0	5.0	2.0	9.0	3.0	-2.0	7.0	2.0	9.0	12.0	3.0	17.0	11.0
1759	113.051	17.0	3.0	11.0	3.0	6.0	6.0	12.0	2.0	8.0	10.0	15.0	1.0	3.0	3.0	-3.0	18.0	6.0	13.0	11.0	-3.0	17.0	7.0	11.0	2.0	12.0	13.0	8.0
1791	115.2	21.0	-6.0	-2.0	-8.0	-7.0	-3.0	-2.0	1.0	-2.0	-2.0	-4.0	2.0	-3.0	-1.0	0.0	-11.0	1.0	-4.0	-1.0	-3.0	2.0	-6.0	-6.0	3.0	-11.0	-8.0	1.0
1823	117.355	11.33	1.67	4.67	10.67	3.67	4.67	6.67	6.67	4.67	1.67	6.67	9.67	-0.33	7.67	-3.33	-0.33	1.67	3.67	6.67	8.67	15.67	7.67	2.67	-0.33	6.67	13.67	2.67
1855	119.518	13.33	-1.33	1.67	3.67	2.67	0.67	2.67	-6.33	-5.33	1.67	-3.33	5.67	0.67	-3.33	0.67	-6.33	-3.33	-1.33	-0.33	-0.33	2.67	10.67	5.67	1.67	-1.33	-6.33	5.67
1887	121.686	12.67	3.33	2.33	1.33	3.33	7.33	-0.67	-1.67	3.33	-6.67	0.33	-0.67	1.33	-3.67	0.33	0.33	7.33	2.33	4.33	-0.67	-1.67	0.33	-0.67	12.33	3.33	-0.67	1.33
1919	123.862	12.0	7.0	10.0	4.0	-6.0	8.0	-3.0	1.0	9.0	10.0	-3.0	-1.0	0.0	0.0	2.0	1.0	-4.0	4.0	0.0	1.0	20.0	0.0	5.0	4.0	1.0	-5.0	4.0
1951	126.045	9.33	-1.33	-4.33	5.67	2.67	3.67	0.67	7.67	5.67	4.67	-2.33	-4.33	0.67	0.67	9.67	3.67	0.67	-1.33	7.67	6.67	4.67	2.67	12.67	4.67	3.67	-1.33	4.67
1983	128.235	12.33	-5.33	2.67	-4.33	1.67	0.67	5.67	1.67	-1.33	-2.33	-0.33	-2.33	0.67	-4.33	-3.33	-2.33	-3.33	-1.33	-6.33	-5.33	-3.33	-0.33	-0.33	-1.33	0.67	2.67	0.67
2015	130.433	10.0	-3.0	-4.0	-3.0	2.0	4.0	0.0	-3.0	-4.0	2.0	-2.0	-3.0	2.0	8.0	-1.0	1.0	4.0	0.0	-1.0	-2.0	-1.0	3.0	-1.0	-2.0	1.0	-5.0	1.0
2047	132.638	8.0	-4.0	8.0	2.0	-1.0	3.0	1.0	0.0	-1.0	-6.0	2.0	-4.0	-2.0	-2.0	3.0	4.0	-1.0	-2.0	3.0	-1.0	-1.0	1.0	-1.0	5.0	4.0	6.0	6.0