Folder: EDX-Concrete-Analysis/EDX Back Ups and Old Files/EDX Processed Data (part 10)

File: Low pH SF 60C 2d.txt
Name: Low pH SF 60C 2d
Number of Scans: 29
Positions: [-13.0, -12.75, -12.5, -12.25, -12.0, -11.75, -11.5, -11.25, -11.0, -10.75, -10.5, -10.25, -10.0, -9.75, -9.5, -9.25, -9.0, -8.75, -8.5, -8.25, -8.0, -7.75, -7.5, -7.25, -7.0, -6.75, -6.5, -6.25, -6.0]
Points per Scan: 2048
Sample Edge: 3
Scans Off Sample: [0, 1, 2]
Conversion Features: [(275, 17444.3), (309, 19608.3), (913, 57981.7), (934, 59318.24), (1058, 67244.3)]
Degree of Fit: 3
Fit Coeffecients: [ 8.59183e-07 -0.001482  64.3003 -144.207]
pH: Low
Steel Fiber: True
Aging Temp.: 60
Aging Atm.: 100% CO2
Aging Humidity: None
Aging Time: 2

*********
#Bins	Energy [keV]	Avg. Background	-12.25	-12.0	-11.75	-11.5	-11.25	-11.0	-10.75	-10.5	-10.25	-10.0	-9.75	-9.5	-9.25	-9.0	-8.75	-8.5	-8.25	-8.0	-7.75	-7.5	-7.25	-7.0	-6.75	-6.5	-6.25	-6.0
31	1.848	14.0	2.0	7.0	-2.0	1.0	0.0	-4.0	1.0	5.0	5.0	4.0	2.0	-1.0	2.0	5.0	1.0	2.0	6.0	-2.0	-1.0	4.0	6.0	2.0	-6.0	0.0	2.0	-2.0
63	3.901	0.33	-0.33	0.67	0.67	-0.33	-0.33	-0.33	-0.33	0.67	0.67	-0.33	-0.33	-0.33	-0.33	-0.33	0.67	0.67	0.67	-0.33	-0.33	0.67	0.67	0.67	0.67	-0.33	-0.33	1.67
95	5.952	1.33	-1.33	-1.33	0.67	-1.33	-1.33	-1.33	-0.33	-1.33	1.67	-0.33	1.67	0.67	-0.33	-1.33	-1.33	-0.33	-0.33	-1.33	0.67	-0.33	0.67	-0.33	-0.33	-0.33	-0.33	-0.33
127	8.0	3.67	2.33	1.33	1.33	1.33	0.33	1.33	0.33	4.33	2.33	-0.67	-1.67	0.33	7.33	3.33	3.33	-1.67	4.33	2.33	4.33	-2.67	0.33	4.33	-1.67	9.33	7.33	-0.67
159	10.046	10.67	-1.67	5.33	3.33	-3.67	0.33	1.33	-2.67	2.33	8.33	-1.67	-2.67	-2.67	-0.67	1.33	5.33	-1.67	4.33	-3.67	3.33	7.33	2.33	9.33	4.33	1.33	10.33	6.33
191	12.089	11.0	-3.0	0.0	-3.0	-1.0	1.0	1.0	2.0	2.0	5.0	-1.0	4.0	0.0	-4.0	0.0	0.0	-1.0	-2.0	-1.0	8.0	3.0	3.0	7.0	1.0	1.0	3.0	5.0
223	14.131	10.67	-1.67	0.33	5.33	6.33	-2.67	3.33	0.33	3.33	-4.67	-2.67	0.33	3.33	2.33	0.33	11.33	2.33	5.33	4.33	2.33	3.33	4.33	5.33	0.33	3.33	-0.67	-0.67
255	16.17	9.33	-2.33	2.67	-4.33	-0.33	1.67	2.67	-0.33	1.67	6.67	3.67	1.67	6.67	5.67	5.67	-0.33	0.67	0.67	6.67	5.67	-0.33	7.67	8.67	5.67	10.67	6.67	6.67
287	18.208	7.33	-1.33	5.67	3.67	1.67	-0.33	2.67	5.67	5.67	-1.33	4.67	5.67	6.67	6.67	1.67	6.67	8.67	2.67	9.67	8.67	6.67	3.67	7.67	0.67	5.67	8.67	10.67
319	20.245	12.33	-3.33	-5.33	-4.33	-5.33	-5.33	-0.33	-4.33	2.67	-4.33	5.67	-1.33	1.67	-1.33	-3.33	-4.33	-3.33	-2.33	1.67	-2.33	-2.33	-2.33	2.67	-3.33	-0.33	9.67	3.67
351	22.28	8.67	-0.67	3.33	1.33	2.33	2.33	-2.67	-2.67	2.33	7.33	3.33	0.33	6.33	2.33	4.33	2.33	1.33	3.33	2.33	4.33	5.33	5.33	0.33	4.33	0.33	6.33	1.33
383	24.314	11.33	0.67	-6.33	-1.33	-5.33	0.67	-4.33	-3.33	-1.33	-6.33	-3.33	-7.33	0.67	-2.33	-3.33	1.67	4.67	-6.33	-4.33	-2.33	-8.33	-2.33	-2.33	1.67	-3.33	-0.33	-0.33
415	26.347	8.33	0.67	-5.33	-2.33	-4.33	-0.33	-1.33	-0.33	-0.33	0.67	-0.33	0.67	-4.33	-1.33	-5.33	-1.33	0.67	-0.33	-1.33	0.67	-0.33	1.67	-1.33	1.67	-3.33	-1.33	1.67
447	28.379	5.67	3.33	8.33	-1.67	4.33	-0.67	-0.67	2.33	1.33	6.33	3.33	1.33	3.33	1.33	8.33	1.33	3.33	4.33	6.33	5.33	5.33	0.33	6.33	0.33	6.33	3.33	3.33
479	30.41	6.33	-3.33	-1.33	1.67	1.67	-0.33	-2.33	-0.33	0.67	-2.33	2.67	-0.33	0.67	-2.33	1.67	0.67	-2.33	-2.33	-3.33	5.67	0.67	-0.33	-1.33	3.67	0.67	0.67	0.67
511	32.441	3.33	-0.33	3.67	-0.33	6.67	10.67	1.67	0.67	9.67	2.67	1.67	3.67	2.67	1.67	8.67	4.67	0.67	1.67	6.67	3.67	3.67	2.67	3.67	1.67	3.67	1.67	2.67
543	34.471	5.0	1.0	-2.0	1.0	3.0	3.0	0.0	-2.0	6.0	2.0	-1.0	-2.0	-2.0	0.0	-3.0	-3.0	2.0	-3.0	2.0	-1.0	1.0	0.0	1.0	1.0	2.0	8.0	4.0
575	36.502	7.33	0.67	-1.33	-1.33	-2.33	-2.33	4.67	-4.33	-5.33	0.67	0.67	5.67	-1.33	-0.33	1.67	-4.33	-3.33	-2.33	-0.33	-2.33	-3.33	2.67	3.67	-0.33	-0.33	1.67	1.67
607	38.532	4.33	3.67	0.67	3.67	1.67	0.67	-0.33	-0.33	2.67	-0.33	-1.33	0.67	0.67	4.67	-0.33	-0.33	0.67	1.67	-1.33	1.67	5.67	2.67	1.67	4.67	0.67	6.67	-1.33
639	40.563	8.0	-1.0	-4.0	-3.0	-3.0	-2.0	-3.0	-4.0	-3.0	-1.0	-3.0	-5.0	3.0	-4.0	-3.0	-4.0	-5.0	-4.0	3.0	-5.0	-6.0	-7.0	-3.0	-1.0	3.0	0.0	0.0
671	42.594	6.0	3.0	0.0	-1.0	6.0	5.0	1.0	-1.0	8.0	-1.0	0.0	-1.0	-1.0	-1.0	2.0	-2.0	-1.0	-2.0	1.0	-2.0	-1.0	0.0	-1.0	2.0	3.0	0.0	1.0
703	44.625	8.0	1.0	-4.0	3.0	-1.0	0.0	3.0	0.0	1.0	-4.0	-1.0	-3.0	-5.0	-3.0	2.0	1.0	0.0	3.0	-3.0	-2.0	1.0	-1.0	-2.0	-1.0	-3.0	1.0	1.0
735	46.657	10.0	0.0	-4.0	-1.0	2.0	-2.0	-6.0	-8.0	0.0	2.0	-4.0	-6.0	-7.0	-4.0	-5.0	-4.0	-1.0	-4.0	1.0	-3.0	-1.0	-7.0	-1.0	-5.0	1.0	-3.0	2.0
767	48.69	10.67	-2.67	-0.67	1.33	1.33	-4.67	-2.67	1.33	-7.67	-3.67	-1.67	-2.67	2.33	-1.67	-3.67	-0.67	-3.67	-4.67	-1.67	2.33	-2.67	-0.67	1.33	-2.67	-7.67	-5.67	4.33
799	50.724	11.33	3.67	2.67	2.67	5.67	6.67	-2.33	-1.33	-0.33	-3.33	8.67	-1.33	2.67	-5.33	-1.33	3.67	3.67	-4.33	-1.33	-4.33	-0.33	-4.33	-0.33	-3.33	-5.33	0.67	-6.33
831	52.759	16.33	-2.33	0.67	-10.33	-4.33	-3.33	-4.33	-0.33	-2.33	-2.33	-3.33	-0.33	1.67	-5.33	5.67	-3.33	-7.33	-3.33	-10.33	-5.33	-3.33	-1.33	-2.33	-9.33	-10.33	-9.33	-5.33
863	54.795	13.67	-4.67	-3.67	1.33	2.33	3.33	-1.67	1.33	7.33	-2.67	-0.67	7.33	-0.67	4.33	-0.67	-4.67	2.33	1.33	1.33	-4.67	-1.67	7.33	2.33	-9.67	-4.67	-0.67	1.33
895	56.833	16.33	0.67	-1.33	-0.33	3.67	2.67	-4.33	-0.33	5.67	3.67	8.67	0.67	5.67	0.67	-1.33	-7.33	-5.33	-3.33	0.67	4.67	-4.33	-0.33	0.67	2.67	-1.33	-1.33	-5.33
927	58.873	24.0	-14.0	3.0	13.0	6.0	18.0	30.0	14.0	-2.0	12.0	23.0	29.0	21.0	6.0	7.0	8.0	13.0	19.0	9.0	5.0	-2.0	5.0	5.0	6.0	-5.0	-5.0	0.0
959	60.915	15.33	10.67	-1.33	8.67	13.67	0.67	9.67	12.67	2.67	2.67	1.67	3.67	-5.33	9.67	0.67	10.67	5.67	3.67	10.67	0.67	0.67	2.67	-0.33	3.67	12.67	3.67	0.67
991	62.958	14.67	14.33	8.33	24.33	33.33	54.33	61.33	44.33	35.33	15.33	30.33	53.33	42.33	38.33	41.33	40.33	63.33	28.33	42.33	33.33	35.33	11.33	27.33	30.33	36.33	30.33	21.33
1023	65.004	21.0	11.0	-6.0	-3.0	1.0	8.0	14.0	9.0	12.0	16.0	11.0	1.0	4.0	2.0	8.0	-2.0	-5.0	8.0	3.0	4.0	10.0	0.0	1.0	3.0	-5.0	-1.0	5.0
1055	67.052	20.33	15.67	7.67	3.67	26.67	40.67	68.67	64.67	46.67	33.67	30.67	41.67	63.67	59.67	12.67	17.67	14.67	27.67	-0.33	14.67	-4.33	9.67	3.67	15.67	5.67	3.67	8.67
1087	69.103	17.67	1.33	33.33	60.33	49.33	43.33	31.33	26.33	18.33	19.33	23.33	16.33	8.33	17.33	14.33	14.33	11.33	8.33	10.33	11.33	10.33	9.33	12.33	18.33	14.33	18.33	17.33
1119	71.156	14.67	4.33	3.33	9.33	6.33	8.33	10.33	2.33	3.33	2.33	9.33	11.33	12.33	8.33	4.33	1.33	-0.67	4.33	2.33	11.33	4.33	9.33	5.33	-2.67	5.33	11.33	21.33
1151	73.212	23.67	-1.67	9.33	18.33	17.33	18.33	15.33	17.33	35.33	24.33	18.33	14.33	16.33	16.33	9.33	17.33	25.33	17.33	0.33	16.33	10.33	26.33	21.33	16.33	13.33	14.33	15.33
1183	75.272	46.67	-5.67	46.33	37.33	48.33	57.33	80.33	91.33	93.33	68.33	21.33	19.33	31.33	45.33	39.33	32.33	36.33	27.33	54.33	49.33	23.33	43.33	28.33	52.33	46.33	30.33	21.33
1215	77.334	15.67	-1.67	11.33	18.33	10.33	28.33	28.33	42.33	22.33	7.33	19.33	17.33	25.33	11.33	9.33	17.33	21.33	12.33	13.33	16.33	14.33	19.33	17.33	19.33	16.33	15.33	23.33
1247	79.4	17.33	-1.33	14.67	33.67	36.67	62.67	39.67	47.67	69.67	65.67	82.67	72.67	83.67	113.67	130.67	113.67	91.67	73.67	45.67	25.67	38.67	47.67	47.67	50.67	32.67	58.67	59.67
1279	81.469	18.33	0.67	4.67	6.67	14.67	17.67	10.67	2.67	7.67	6.67	15.67	1.67	13.67	8.67	17.67	15.67	17.67	2.67	2.67	13.67	12.67	8.67	7.67	22.67	5.67	7.67	11.67
1311	83.542	18.67	4.33	23.33	19.33	24.33	11.33	22.33	26.33	17.33	17.33	34.33	22.33	9.33	24.33	34.33	9.33	15.33	9.33	22.33	17.33	12.33	11.33	11.33	17.33	13.33	11.33	11.33
1343	85.619	30.33	1.67	5.67	14.67	18.67	18.67	24.67	34.67	26.67	22.67	22.67	24.67	28.67	17.67	24.67	29.67	25.67	19.67	17.67	12.67	9.67	17.67	4.67	17.67	13.67	7.67	16.67
1375	87.7	24.33	15.67	1.67	12.67	15.67	17.67	13.67	19.67	34.67	15.67	10.67	26.67	18.67	30.67	22.67	16.67	16.67	13.67	23.67	13.67	7.67	11.67	18.67	9.67	21.67	9.67	13.67
1407	89.786	23.33	1.67	9.67	1.67	12.67	0.67	6.67	9.67	7.67	18.67	14.67	6.67	15.67	2.67	18.67	18.67	23.67	10.67	2.67	3.67	11.67	3.67	4.67	11.67	12.67	-4.33	9.67
1439	91.875	26.33	-1.33	6.67	9.67	-0.33	9.67	3.67	4.67	15.67	4.67	25.67	11.67	8.67	7.67	5.67	19.67	10.67	4.67	7.67	24.67	7.67	3.67	11.67	22.67	19.67	1.67	8.67
1471	93.97	35.0	-11.0	0.0	-4.0	-6.0	9.0	10.0	3.0	4.0	0.0	-1.0	-9.0	-6.0	5.0	2.0	-4.0	-2.0	13.0	4.0	1.0	5.0	7.0	-2.0	-3.0	5.0	-13.0	6.0
1503	96.069	29.0	7.0	9.0	9.0	7.0	0.0	-1.0	6.0	7.0	12.0	22.0	9.0	10.0	3.0	7.0	6.0	16.0	15.0	17.0	12.0	4.0	15.0	5.0	2.0	2.0	11.0	16.0
1535	98.172	34.67	5.33	-6.67	-7.67	-2.67	12.33	14.33	-4.67	29.33	5.33	17.33	1.33	7.33	9.33	17.33	2.33	3.33	13.33	14.33	15.33	2.33	13.33	7.33	1.33	-1.67	1.33	13.33
1567	100.281	31.0	5.0	7.0	5.0	10.0	19.0	1.0	18.0	29.0	20.0	29.0	-4.0	27.0	22.0	49.0	34.0	31.0	20.0	13.0	7.0	23.0	7.0	2.0	21.0	2.0	3.0	19.0
1599	102.395	28.0	21.0	2.0	0.0	2.0	5.0	17.0	19.0	7.0	9.0	10.0	6.0	15.0	13.0	26.0	12.0	10.0	6.0	11.0	10.0	13.0	22.0	12.0	11.0	19.0	12.0	9.0
1631	104.515	29.0	3.0	1.0	6.0	5.0	1.0	2.0	14.0	2.0	6.0	3.0	12.0	2.0	16.0	14.0	7.0	14.0	18.0	12.0	4.0	6.0	0.0	0.0	-3.0	5.0	10.0	-3.0
1663	106.64	19.67	9.33	8.33	9.33	24.33	1.33	16.33	9.33	15.33	11.33	12.33	5.33	10.33	9.33	10.33	7.33	17.33	9.33	16.33	11.33	6.33	13.33	18.33	30.33	11.33	13.33	15.33
1695	108.771	32.33	-6.33	-6.33	-8.33	0.67	-6.33	-0.33	-5.33	1.67	-10.33	-6.33	-3.33	-5.33	-3.33	-7.33	-13.33	-3.33	-2.33	8.67	-11.33	-13.33	0.67	-4.33	-6.33	-8.33	-2.33	6.67
1727	110.908	25.0	-6.0	0.0	-6.0	-4.0	-2.0	1.0	5.0	3.0	4.0	-3.0	5.0	-2.0	2.0	-1.0	0.0	3.0	2.0	-1.0	-3.0	-12.0	-3.0	8.0	0.0	0.0	3.0	-1.0
1759	113.051	22.67	-1.67	6.33	9.33	8.33	-4.67	9.33	3.33	0.33	0.33	5.33	8.33	-2.67	1.33	-2.67	-1.67	-9.67	2.33	13.33	-2.67	-2.67	4.33	-4.67	0.33	6.33	0.33	1.33
1791	115.2	18.67	-9.67	4.33	6.33	0.33	6.33	2.33	-2.67	9.33	4.33	1.33	-0.67	6.33	-1.67	0.33	-0.67	-4.67	6.33	8.33	-7.67	7.33	1.33	-6.67	1.33	-3.67	-4.67	-0.67
1823	117.355	13.67	3.33	3.33	-0.67	-1.67	5.33	-0.67	8.33	3.33	2.33	6.33	2.33	12.33	2.33	8.33	13.33	1.33	8.33	4.33	4.33	12.33	2.33	3.33	3.33	3.33	4.33	9.33
1855	119.518	16.0	1.0	-1.0	-2.0	-3.0	3.0	-2.0	-6.0	-4.0	-1.0	0.0	3.0	1.0	-4.0	0.0	-3.0	-6.0	10.0	0.0	-2.0	-2.0	-10.0	3.0	6.0	-1.0	1.0	0.0
1887	121.686	10.33	1.67	1.67	3.67	2.67	8.67	1.67	14.67	13.67	1.67	5.67	7.67	1.67	7.67	3.67	-1.33	4.67	4.67	6.67	7.67	10.67	0.67	3.67	3.67	2.67	6.67	3.67
1919	123.862	12.0	2.0	1.0	-3.0	7.0	0.0	-7.0	-3.0	4.0	-2.0	1.0	4.0	-9.0	-1.0	5.0	-3.0	1.0	3.0	7.0	-2.0	4.0	-2.0	-2.0	2.0	3.0	1.0	6.0
1951	126.045	13.0	-7.0	-5.0	-4.0	3.0	0.0	3.0	-5.0	8.0	-2.0	-1.0	0.0	2.0	-2.0	-1.0	-1.0	-1.0	-3.0	-6.0	-5.0	1.0	1.0	-1.0	5.0	-3.0	4.0	3.0
1983	128.235	9.67	-1.67	-4.67	-2.67	2.33	-2.67	1.33	5.33	5.33	5.33	0.33	2.33	9.33	3.33	1.33	8.33	0.33	2.33	1.33	2.33	3.33	10.33	10.33	2.33	10.33	13.33	0.33
2015	130.433	8.0	0.0	-1.0	0.0	-3.0	4.0	6.0	1.0	-1.0	-1.0	1.0	4.0	5.0	5.0	-4.0	13.0	4.0	3.0	5.0	-1.0	0.0	2.0	2.0	6.0	0.0	2.0	1.0
2047	132.638	9.67	-6.67	-4.67	-2.67	-2.67	-3.67	0.33	0.33	-4.67	3.33	0.33	-0.67	-3.67	-4.67	-3.67	4.33	2.33	2.33	-2.67	-4.67	-3.67	-2.67	-2.67	0.33	-1.67	0.33	5.33

File: Low pH SF 60C 4d.txt
Name: Low pH SF 60C 4d
Number of Scans: 29
Positions: [-13.0, -12.75, -12.5, -12.25, -12.0, -11.75, -11.5, -11.25, -11.0, -10.75, -10.5, -10.25, -10.0, -9.75, -9.5, -9.25, -9.0, -8.75, -8.5, -8.25, -8.0, -7.75, -7.5, -7.25, -7.0, -6.75, -6.5, -6.25, -6.0]
Points per Scan: 2048
Sample Edge: 3
Scans Off Sample: [0, 1, 2]
Conversion Features: [(275, 17444.3), (309, 19608.3), (913, 57981.7), (934, 59318.24), (1058, 67244.3)]
Degree of Fit: 3
Fit Coeffecients: [ 8.59183e-07 -0.001482  64.3003 -144.207]
pH: Low
Steel Fiber: True
Aging Temp.: 60
Aging Atm.: 100% CO2
Aging Humidity: None
Aging Time: 4

*********
#Bins	Energy [keV]	Avg. Background	-12.25	-12.0	-11.75	-11.5	-11.25	-11.0	-10.75	-10.5	-10.25	-10.0	-9.75	-9.5	-9.25	-9.0	-8.75	-8.5	-8.25	-8.0	-7.75	-7.5	-7.25	-7.0	-6.75	-6.5	-6.25	-6.0
31	1.848	14.0	6.0	1.0	-1.0	4.0	-7.0	8.0	0.0	5.0	6.0	0.0	1.0	-2.0	7.0	-4.0	7.0	-5.0	9.0	4.0	5.0	5.0	5.0	-1.0	3.0	-1.0	-3.0	-2.0
63	3.901	0.67	-0.67	-0.67	-0.67	-0.67	0.33	-0.67	0.33	0.33	-0.67	0.33	-0.67	0.33	-0.67	-0.67	-0.67	0.33	0.33	0.33	0.33	0.33	0.33	-0.67	1.33	-0.67	-0.67	-0.67
95	5.952	1.0	-1.0	-1.0	0.0	0.0	0.0	0.0	-1.0	0.0	3.0	-1.0	2.0	-1.0	1.0	1.0	0.0	1.0	0.0	0.0	-1.0	1.0	-1.0	-1.0	-1.0	-1.0	-1.0	1.0
127	8.0	8.0	-3.0	1.0	1.0	-4.0	-3.0	-3.0	-3.0	-5.0	0.0	-2.0	-5.0	-2.0	4.0	-1.0	-2.0	3.0	-1.0	-2.0	3.0	0.0	-1.0	-3.0	3.0	-3.0	-4.0	-6.0
159	10.046	8.67	-2.67	4.33	3.33	4.33	-1.67	-6.67	3.33	1.33	-0.67	4.33	1.33	3.33	2.33	4.33	3.33	6.33	5.33	5.33	1.33	1.33	-1.67	5.33	3.33	-1.67	7.33	5.33
191	12.089	11.0	-2.0	2.0	0.0	-1.0	2.0	-1.0	-1.0	1.0	-1.0	10.0	-3.0	5.0	0.0	1.0	4.0	7.0	4.0	1.0	12.0	0.0	5.0	1.0	2.0	3.0	-4.0	3.0
223	14.131	11.0	1.0	2.0	4.0	0.0	4.0	-1.0	-2.0	-3.0	2.0	-3.0	-2.0	5.0	-4.0	-2.0	0.0	5.0	3.0	-1.0	2.0	0.0	-2.0	9.0	6.0	0.0	-1.0	0.0
255	16.17	7.33	-0.33	1.67	7.67	5.67	2.67	10.67	-2.33	6.67	-1.33	3.67	1.67	1.67	1.67	1.67	3.67	6.67	5.67	3.67	13.67	6.67	2.67	3.67	8.67	0.67	3.67	6.67
287	18.208	8.67	4.33	3.33	-2.67	0.33	-4.67	2.33	0.33	1.33	3.33	3.33	2.33	2.33	10.33	3.33	3.33	7.33	0.33	12.33	4.33	0.33	4.33	3.33	3.33	3.33	2.33	4.33
319	20.245	12.67	-1.67	0.33	-6.67	-0.67	-5.67	-2.67	2.33	-2.67	-4.67	2.33	-1.67	-4.67	1.33	-3.67	2.33	-1.67	-4.67	-2.67	-2.67	0.33	-2.67	-2.67	-4.67	-2.67	1.33	-4.67
351	22.28	9.0	-2.0	-2.0	5.0	4.0	0.0	-2.0	0.0	9.0	0.0	6.0	3.0	4.0	1.0	-1.0	2.0	-2.0	3.0	0.0	1.0	7.0	4.0	1.0	-1.0	0.0	4.0	2.0
383	24.314	5.67	1.33	5.33	5.33	0.33	2.33	-1.67	8.33	3.33	4.33	0.33	5.33	-2.67	2.33	6.33	10.33	3.33	9.33	-1.67	7.33	3.33	9.33	6.33	9.33	6.33	6.33	8.33
415	26.347	7.33	2.67	0.67	3.67	2.67	-1.33	-3.33	3.67	-0.33	2.67	2.67	-0.33	1.67	0.67	5.67	1.67	4.67	2.67	3.67	9.67	0.67	7.67	4.67	-0.33	-2.33	1.67	5.67
447	28.379	6.67	-0.67	-0.67	-1.67	3.33	2.33	-0.67	1.33	3.33	-1.67	3.33	0.33	7.33	1.33	1.33	-4.67	0.33	-1.67	2.33	-2.67	2.33	2.33	-0.67	4.33	3.33	3.33	3.33
479	30.41	7.33	-3.33	1.67	1.67	-2.33	-0.33	3.67	2.67	0.67	1.67	-0.33	-2.33	7.67	1.67	0.67	-3.33	1.67	-3.33	-0.33	3.67	-1.33	-1.33	-2.33	-2.33	-0.33	-1.33	-0.33
511	32.441	7.0	-5.0	0.0	2.0	-1.0	4.0	-3.0	-4.0	0.0	-6.0	5.0	-1.0	0.0	0.0	-4.0	2.0	-1.0	-3.0	-1.0	2.0	-1.0	0.0	-4.0	1.0	-2.0	-2.0	1.0
543	34.471	5.67	3.33	0.33	1.33	1.33	0.33	-1.67	-1.67	1.33	1.33	1.33	1.33	-1.67	-3.67	-1.67	-2.67	0.33	1.33	-0.67	-2.67	1.33	4.33	-0.67	2.33	2.33	-0.67	-0.67
575	36.502	5.67	1.33	-0.67	-0.67	-0.67	-2.67	0.33	1.33	1.33	-0.67	-2.67	3.33	-2.67	-0.67	-1.67	-3.67	3.33	3.33	4.33	-4.67	-1.67	-0.67	-0.67	1.33	-0.67	0.33	-2.67
607	38.532	6.33	-1.33	-1.33	2.67	-2.33	0.67	-3.33	-2.33	-0.33	-1.33	0.67	2.67	-2.33	-3.33	6.67	1.67	-1.33	4.67	-3.33	0.67	-2.33	3.67	-1.33	2.67	7.67	-1.33	1.67
639	40.563	3.33	2.67	3.67	-1.33	4.67	0.67	-0.33	-2.33	0.67	6.67	8.67	2.67	2.67	-1.33	2.67	1.67	-1.33	1.67	3.67	2.67	1.67	0.67	5.67	1.67	2.67	-0.33	3.67
671	42.594	7.33	-3.33	-3.33	2.67	3.67	-3.33	2.67	-0.33	-4.33	0.67	-2.33	-3.33	-5.33	-0.33	-3.33	-0.33	-0.33	-3.33	-3.33	-0.33	-3.33	0.67	0.67	-5.33	-3.33	0.67	-4.33
703	44.625	10.33	-0.33	-8.33	-1.33	-4.33	-1.33	-2.33	-4.33	-7.33	-6.33	-4.33	-8.33	-6.33	-0.33	-9.33	-5.33	-2.33	-8.33	1.67	-6.33	-3.33	-3.33	-1.33	-2.33	-3.33	-3.33	-1.33
735	46.657	7.67	0.33	-1.67	-0.67	5.33	3.33	-0.67	0.33	-0.67	-1.67	3.33	-1.67	0.33	0.33	0.33	-1.67	-1.67	-0.67	-0.67	-5.67	-0.67	-0.67	0.33	0.33	-4.67	-2.67	-3.67
767	48.69	9.67	0.33	6.33	-3.67	2.33	0.33	-0.67	-2.67	0.33	-1.67	-1.67	-2.67	-5.67	0.33	1.33	-2.67	-3.67	-0.67	-2.67	3.33	-1.67	-0.67	-5.67	-6.67	-1.67	-0.67	3.33
799	50.724	13.33	-4.33	-4.33	-8.33	1.67	-2.33	0.67	-3.33	-2.33	1.67	-8.33	-3.33	-8.33	-2.33	-2.33	5.67	-8.33	-1.33	-5.33	0.67	-2.33	-2.33	-5.33	-5.33	-1.33	-9.33	-5.33
831	52.759	18.67	-8.67	-4.67	-10.67	-4.67	-2.67	2.33	-3.67	-10.67	-8.67	-6.67	-7.67	-9.67	-5.67	-9.67	-4.67	-0.67	-8.67	-5.67	-9.67	-9.67	-9.67	-12.67	-9.67	-8.67	-7.67	-2.67
863	54.795	16.33	-9.33	-4.33	-0.33	3.67	-0.33	-1.33	4.67	-3.33	0.67	-6.33	-4.33	-0.33	-12.33	-3.33	-6.33	1.67	-3.33	-0.33	-4.33	-4.33	1.67	-7.33	-6.33	-6.33	-0.33	-2.33
895	56.833	14.67	3.33	2.33	1.33	9.33	14.33	8.33	5.33	4.33	-0.67	-0.67	1.33	-0.67	3.33	2.33	3.33	-7.67	-0.67	-4.67	-7.67	-2.67	-2.67	3.33	-0.67	-1.67	1.33	-6.67
927	58.873	18.0	-2.0	-3.0	-2.0	16.0	16.0	12.0	7.0	11.0	11.0	21.0	12.0	5.0	17.0	1.0	8.0	14.0	0.0	5.0	2.0	18.0	21.0	8.0	18.0	8.0	10.0	-1.0
959	60.915	17.33	-8.33	-7.33	-3.33	3.67	10.67	4.67	10.67	1.67	10.67	-5.33	5.67	-4.33	-3.33	1.67	-0.33	1.67	-4.33	5.67	6.67	-0.33	-2.33	5.67	4.67	1.67	5.67	-2.33
991	62.958	18.33	8.67	90.67	113.67	101.67	68.67	16.67	6.67	33.67	13.67	41.67	31.67	16.67	12.67	13.67	18.67	13.67	13.67	10.67	2.67	6.67	11.67	-3.33	11.67	9.67	23.67	9.67
1023	65.004	21.33	-5.33	-5.33	-4.33	1.67	7.67	7.67	2.67	14.67	1.67	5.67	-8.33	0.67	4.67	-2.33	-2.33	-5.33	2.67	6.67	-4.33	30.67	24.67	14.67	-3.33	-4.33	-2.33	-5.33
1055	67.052	18.0	2.0	4.0	6.0	26.0	14.0	20.0	28.0	13.0	22.0	15.0	13.0	18.0	19.0	10.0	19.0	6.0	14.0	15.0	10.0	35.0	23.0	20.0	23.0	8.0	1.0	20.0
1087	69.103	12.67	3.33	7.33	12.33	21.33	19.33	29.33	22.33	12.33	27.33	18.33	18.33	20.33	14.33	18.33	11.33	24.33	24.33	21.33	14.33	21.33	19.33	10.33	11.33	23.33	37.33	39.33
1119	71.156	17.0	-1.0	-9.0	4.0	2.0	0.0	1.0	3.0	13.0	7.0	3.0	0.0	1.0	3.0	1.0	1.0	6.0	-2.0	7.0	9.0	5.0	3.0	7.0	12.0	7.0	3.0	6.0
1151	73.212	25.0	-5.0	10.0	23.0	25.0	33.0	12.0	21.0	10.0	12.0	20.0	15.0	28.0	6.0	59.0	51.0	44.0	43.0	7.0	4.0	9.0	18.0	-1.0	13.0	13.0	-2.0	10.0
1183	75.272	43.0	-11.0	36.0	36.0	20.0	36.0	44.0	49.0	62.0	22.0	38.0	31.0	39.0	37.0	41.0	17.0	41.0	44.0	28.0	31.0	28.0	27.0	28.0	30.0	45.0	63.0	35.0
1215	77.334	18.67	-4.67	12.33	15.33	32.33	31.33	31.33	27.33	39.33	34.33	17.33	29.33	21.33	14.33	17.33	6.33	13.33	8.33	20.33	40.33	31.33	14.33	27.33	9.33	39.33	36.33	14.33
1247	79.4	14.0	8.0	12.0	53.0	59.0	52.0	69.0	59.0	46.0	37.0	22.0	67.0	57.0	68.0	47.0	36.0	54.0	37.0	61.0	42.0	36.0	27.0	43.0	27.0	27.0	31.0	28.0
1279	81.469	15.67	13.33	1.33	7.33	12.33	12.33	16.33	3.33	19.33	17.33	23.33	15.33	27.33	8.33	7.33	2.33	14.33	7.33	4.33	3.33	22.33	11.33	11.33	11.33	6.33	6.33	3.33
1311	83.542	21.33	3.67	10.67	11.67	18.67	18.67	8.67	15.67	14.67	20.67	6.67	14.67	16.67	13.67	8.67	8.67	11.67	0.67	2.67	8.67	20.67	6.67	11.67	5.67	17.67	8.67	14.67
1343	85.619	22.33	5.67	12.67	33.67	31.67	25.67	27.67	20.67	20.67	34.67	18.67	36.67	9.67	13.67	15.67	24.67	26.67	33.67	18.67	23.67	28.67	22.67	22.67	28.67	9.67	18.67	12.67
1375	87.7	26.67	-2.67	16.33	39.33	31.33	23.33	29.33	14.33	12.33	23.33	12.33	18.33	15.33	5.33	4.33	14.33	13.33	11.33	7.33	11.33	12.33	7.33	11.33	10.33	8.33	8.33	7.33
1407	89.786	22.67	0.33	15.33	15.33	15.33	15.33	11.33	24.33	18.33	10.33	3.33	12.33	-0.67	14.33	4.33	10.33	5.33	10.33	8.33	-0.67	-6.67	8.33	7.33	10.33	-2.67	3.33	13.33
1439	91.875	29.33	-5.33	-10.33	-6.33	-3.33	1.67	-3.33	3.67	2.67	3.67	2.67	-1.33	7.67	0.67	0.67	-5.33	0.67	4.67	6.67	0.67	9.67	3.67	-2.33	3.67	-0.33	4.67	0.67
1471	93.97	25.33	17.67	3.67	-8.33	-0.33	8.67	9.67	7.67	11.67	7.67	-1.33	10.67	4.67	6.67	8.67	11.67	5.67	10.67	8.67	8.67	8.67	6.67	2.67	5.67	9.67	7.67	6.67
1503	96.069	27.33	-8.33	-0.33	1.67	-3.33	8.67	9.67	-3.33	5.67	15.67	11.67	9.67	17.67	5.67	5.67	5.67	8.67	5.67	3.67	8.67	12.67	10.67	9.67	8.67	0.67	9.67	12.67
1535	98.172	31.67	2.33	12.33	3.33	4.33	1.33	9.33	17.33	6.33	-0.67	-3.67	6.33	6.33	-1.67	1.33	0.33	-0.67	5.33	2.33	11.33	2.33	-0.67	3.33	0.33	12.33	13.33	13.33
1567	100.281	30.33	6.67	3.67	-5.33	12.67	3.67	14.67	22.67	1.67	26.67	21.67	14.67	21.67	18.67	6.67	6.67	14.67	12.67	1.67	9.67	0.67	15.67	-0.33	9.67	2.67	19.67	19.67
1599	102.395	26.33	8.67	4.67	0.67	11.67	12.67	-1.33	0.67	1.67	3.67	9.67	7.67	12.67	9.67	9.67	12.67	5.67	20.67	22.67	5.67	20.67	0.67	6.67	9.67	19.67	16.67	8.67
1631	104.515	25.33	-1.33	-4.33	-2.33	7.67	17.67	5.67	-0.33	11.67	11.67	2.67	10.67	2.67	13.67	-6.33	-1.33	-8.33	5.67	9.67	13.67	6.67	19.67	4.67	12.67	17.67	10.67	19.67
1663	106.64	27.0	6.0	8.0	4.0	-4.0	-3.0	5.0	-9.0	0.0	-1.0	-5.0	-7.0	3.0	-6.0	1.0	-3.0	-3.0	12.0	-4.0	6.0	-6.0	6.0	5.0	-8.0	7.0	-8.0	-1.0
1695	108.771	21.33	2.67	-4.33	0.67	8.67	4.67	11.67	1.67	8.67	-5.33	7.67	-1.33	-5.33	6.67	4.67	-4.33	2.67	-3.33	-0.33	16.67	0.67	5.67	6.67	10.67	4.67	9.67	4.67
1727	110.908	25.67	-10.67	-2.67	-4.67	4.33	3.33	-5.67	-5.67	-2.67	-5.67	-2.67	4.33	-0.67	-2.67	3.33	2.33	-2.67	-5.67	-2.67	-6.67	7.33	3.33	-1.67	3.33	2.33	4.33	-8.67
1759	113.051	19.67	1.33	3.33	-2.67	1.33	6.33	-5.67	3.33	2.33	2.33	0.33	3.33	5.33	0.33	-0.67	-1.67	9.33	-6.67	-7.67	3.33	-1.67	0.33	0.33	1.33	4.33	5.33	0.33
1791	115.2	16.33	2.67	2.67	1.67	5.67	-1.33	10.67	5.67	-2.33	7.67	-2.33	0.67	9.67	-2.33	5.67	3.67	-0.33	6.67	8.67	6.67	5.67	0.67	3.67	13.67	4.67	-7.33	2.67
1823	117.355	12.33	2.67	0.67	5.67	-0.33	-1.33	3.67	-2.33	1.67	2.67	3.67	4.67	3.67	12.67	-1.33	3.67	7.67	4.67	-0.33	1.67	2.67	-1.33	1.67	6.67	9.67	6.67	11.67
1855	119.518	13.33	1.67	-0.33	-0.33	-0.33	0.67	4.67	1.67	3.67	3.67	2.67	5.67	8.67	0.67	1.67	3.67	1.67	1.67	2.67	3.67	-2.33	7.67	-0.33	-1.33	2.67	6.67	6.67
1887	121.686	11.33	1.67	-0.33	8.67	4.67	-2.33	2.67	14.67	4.67	2.67	5.67	6.67	8.67	-2.33	0.67	1.67	5.67	1.67	5.67	-5.33	-1.33	11.67	7.67	2.67	3.67	-3.33	2.67
1919	123.862	11.67	1.33	-6.67	-1.67	-1.67	3.33	3.33	-2.67	-0.67	-3.67	2.33	3.33	8.33	-4.67	-1.67	3.33	-0.67	-1.67	1.33	0.33	7.33	5.33	0.33	-1.67	-0.67	6.33	-1.67
1951	126.045	10.0	-2.0	0.0	8.0	-1.0	0.0	6.0	-1.0	-1.0	1.0	-1.0	3.0	-1.0	2.0	1.0	3.0	0.0	4.0	0.0	6.0	4.0	2.0	10.0	8.0	8.0	3.0	-2.0
1983	128.235	8.33	-0.33	6.67	3.67	7.67	6.67	0.67	3.67	0.67	1.67	6.67	-2.33	2.67	14.67	6.67	5.67	5.67	0.67	2.67	-1.33	4.67	4.67	7.67	2.67	8.67	4.67	-0.33
2015	130.433	9.67	2.33	5.33	2.33	1.33	3.33	0.33	-1.67	5.33	-1.67	-1.67	-0.67	1.33	-3.67	-2.67	-0.67	-4.67	0.33	0.33	1.33	-3.67	-4.67	-1.67	8.33	-1.67	-1.67	-0.67
2047	132.638	8.0	4.0	0.0	2.0	7.0	3.0	1.0	7.0	2.0	4.0	1.0	-3.0	0.0	1.0	0.0	1.0	-1.0	2.0	5.0	3.0	-2.0	-1.0	9.0	1.0	4.0	4.0	1.0