Folder: EDX-Concrete-Analysis/EDX Back Ups and Old Files/EDX Processed Data (part 3)

File: High pH BL Ref.txt
Name: High pH BL Ref
Number of Scans: 29
Positions: [-13.0, -12.75, -12.5, -12.25, -12.0, -11.75, -11.5, -11.25, -11.0, -10.75, -10.5, -10.25, -10.0, -9.75, -9.5, -9.25, -9.0, -8.75, -8.5, -8.25, -8.0, -7.75, -7.5, -7.25, -7.0, -6.75, -6.5, -6.25, -6.0]
Points per Scan: 2048
Sample Edge: 3
Scans Off Sample: [0, 1, 2]
Conversion Features: [(275, 17444.3), (309, 19608.3), (913, 57981.7), (934, 59318.24), (1058, 67244.3)]
Degree of Fit: 3
Fit Coeffecients: [ 8.59183e-07 -0.001482  64.3003 -144.207]
pH: High
Steel Fiber: False
Aging Temp.: 25
Aging Atm.: 100% CO2
Aging Humidity: None
Aging Time: 0

*********
#Bins	Energy [keV]	Avg. Background	-12.25	-12.0	-11.75	-11.5	-11.25	-11.0	-10.75	-10.5	-10.25	-10.0	-9.75	-9.5	-9.25	-9.0	-8.75	-8.5	-8.25	-8.0	-7.75	-7.5	-7.25	-7.0	-6.75	-6.5	-6.25	-6.0
30	1.783	22.33	-1.33	-0.33	-0.33	4.67	2.67	0.67	-7.33	-2.33	1.67	-3.33	0.67	4.67	3.67	-4.33	11.67	-1.33	4.67	-2.33	11.67	0.67	6.67	1.67	-5.33	-0.33	-5.33	5.67
61	3.773	0.0	0.0	0.0	0.0	0.0	0.0	1.0	1.0	2.0	1.0	0.0	1.0	0.0	0.0	0.0	1.0	0.0	0.0	0.0	0.0	1.0	0.0	0.0	1.0	0.0	0.0	0.0
92	5.76	1.0	-1.0	-1.0	0.0	0.0	1.0	-1.0	0.0	-1.0	-1.0	-1.0	0.0	0.0	0.0	-1.0	-1.0	0.0	0.0	0.0	1.0	-1.0	1.0	-1.0	-1.0	-1.0	-1.0	0.0
123	7.744	3.0	0.0	0.0	6.0	2.0	-1.0	1.0	-1.0	-1.0	1.0	0.0	3.0	2.0	0.0	2.0	7.0	0.0	2.0	3.0	1.0	2.0	-1.0	4.0	1.0	1.0	4.0	5.0
154	9.726	9.67	-1.67	-0.67	6.33	-0.67	8.33	4.33	-0.67	-0.67	1.33	-3.67	-1.67	3.33	4.33	4.33	-0.67	2.33	3.33	2.33	1.33	-1.67	2.33	0.33	-1.67	-1.67	-0.67	1.33
185	11.706	11.0	-1.0	-1.0	-7.0	6.0	-2.0	5.0	2.0	-2.0	-3.0	-2.0	8.0	-1.0	2.0	-1.0	-5.0	-2.0	7.0	-1.0	-1.0	5.0	5.0	0.0	3.0	-2.0	6.0	5.0
216	13.684	10.33	0.67	-2.33	2.67	-0.33	2.67	-5.33	0.67	2.67	0.67	2.67	4.67	-2.33	-3.33	5.67	-3.33	-0.33	1.67	0.67	3.67	0.67	-1.33	3.67	1.67	11.67	0.67	0.67
247	15.661	12.33	-0.33	-1.33	4.67	2.67	3.67	-4.33	-0.33	-2.33	-2.33	-1.33	-1.33	2.67	-5.33	-3.33	-5.33	-0.33	-5.33	-0.33	1.67	2.67	-1.33	3.67	-2.33	5.67	-5.33	-2.33
278	17.635	9.0	-1.0	4.0	-1.0	5.0	3.0	7.0	4.0	-2.0	-5.0	-4.0	0.0	6.0	-3.0	-1.0	1.0	0.0	0.0	3.0	5.0	5.0	5.0	-1.0	5.0	3.0	7.0	7.0
309	19.608	7.67	7.33	2.33	4.33	5.33	6.33	1.33	2.33	3.33	1.33	0.33	9.33	0.33	6.33	1.33	2.33	-1.67	1.33	6.33	0.33	3.33	7.33	1.33	6.33	-0.67	5.33	2.33
340	21.58	6.67	-1.67	2.33	3.33	9.33	3.33	2.33	3.33	7.33	6.33	3.33	4.33	4.33	2.33	11.33	10.33	1.33	0.33	3.33	1.33	4.33	9.33	0.33	7.33	4.33	6.33	5.33
371	23.551	8.0	7.0	4.0	0.0	3.0	3.0	-2.0	-4.0	-1.0	0.0	-1.0	6.0	-1.0	0.0	1.0	-1.0	5.0	2.0	1.0	5.0	7.0	1.0	8.0	3.0	-5.0	3.0	-2.0
402	25.521	9.0	-3.0	-1.0	-1.0	2.0	3.0	5.0	6.0	1.0	-3.0	4.0	5.0	-4.0	0.0	3.0	1.0	-4.0	0.0	2.0	-1.0	4.0	2.0	2.0	4.0	1.0	1.0	4.0
433	27.49	6.0	-4.0	-3.0	0.0	-1.0	-3.0	7.0	2.0	1.0	4.0	-3.0	1.0	7.0	7.0	4.0	5.0	0.0	-2.0	-4.0	3.0	4.0	-2.0	2.0	4.0	8.0	3.0	3.0
464	29.458	7.0	-2.0	0.0	0.0	3.0	-2.0	4.0	0.0	2.0	1.0	5.0	2.0	-1.0	0.0	-1.0	3.0	4.0	3.0	2.0	-2.0	1.0	-1.0	1.0	-1.0	-2.0	-2.0	1.0
495	31.426	6.33	0.67	-1.33	3.67	-1.33	-2.33	-2.33	1.67	1.67	0.67	-1.33	-0.33	5.67	-0.33	2.67	4.67	2.67	0.67	0.67	-0.33	5.67	1.67	4.67	-0.33	0.67	5.67	-1.33
526	33.393	3.33	1.67	3.67	-1.33	2.67	1.67	5.67	4.67	1.67	2.67	-0.33	2.67	1.67	5.67	0.67	0.67	4.67	-1.33	7.67	3.67	6.67	8.67	2.67	1.67	2.67	4.67	0.67
557	35.36	3.0	-1.0	1.0	3.0	-2.0	5.0	2.0	5.0	-1.0	2.0	-1.0	4.0	3.0	7.0	0.0	3.0	2.0	2.0	3.0	4.0	2.0	2.0	3.0	4.0	-2.0	6.0	3.0
588	37.327	3.0	3.0	1.0	0.0	3.0	1.0	1.0	3.0	-1.0	5.0	-1.0	5.0	0.0	1.0	2.0	5.0	6.0	5.0	3.0	2.0	1.0	0.0	5.0	1.0	4.0	3.0	5.0
619	39.294	5.67	-0.67	0.33	6.33	1.33	-1.67	-1.67	-1.67	2.33	-0.67	-0.67	-4.67	2.33	-1.67	-3.67	-2.67	2.33	-3.67	0.33	0.33	3.33	5.33	-2.67	-2.67	-0.67	2.33	0.33
650	41.261	4.67	-0.67	2.33	0.33	4.33	0.33	-0.67	0.33	3.33	0.33	5.33	3.33	1.33	1.33	1.33	2.33	1.33	4.33	1.33	0.33	2.33	5.33	3.33	0.33	-1.67	-0.67	-0.67
681	43.228	5.67	-1.67	-0.67	1.33	3.33	2.33	0.33	-1.67	2.33	2.33	0.33	3.33	1.33	-2.67	-0.67	-2.67	-1.67	2.33	8.33	1.33	-0.67	2.33	0.33	-3.67	0.33	-0.67	0.33
712	45.196	9.67	6.33	1.33	-0.67	2.33	-2.67	-1.67	-1.67	-1.67	2.33	-1.67	-4.67	2.33	-4.67	-1.67	-2.67	0.33	-2.67	-4.67	-1.67	-2.67	2.33	-4.67	0.33	0.33	-2.67	-0.67
743	47.165	13.67	-0.67	-5.67	-2.67	-6.67	-4.67	-3.67	-8.67	-6.67	-2.67	-8.67	-2.67	-6.67	-6.67	-7.67	-0.67	-8.67	-2.67	-7.67	-4.67	-10.67	-7.67	-2.67	-3.67	-7.67	-1.67	-5.67
774	49.135	12.0	-2.0	-1.0	0.0	-3.0	-4.0	1.0	-6.0	0.0	3.0	1.0	-9.0	-6.0	-5.0	0.0	1.0	-4.0	-2.0	1.0	-2.0	0.0	-2.0	-3.0	-8.0	0.0	-6.0	-1.0
805	51.105	12.67	38.33	22.33	40.33	33.33	23.33	17.33	29.33	20.33	21.33	29.33	16.33	18.33	12.33	14.33	17.33	11.33	7.33	23.33	4.33	11.33	9.33	6.33	11.33	19.33	5.33	5.33
836	53.077	15.0	-5.0	3.0	0.0	4.0	4.0	2.0	-7.0	-2.0	-4.0	-1.0	-8.0	3.0	1.0	-2.0	-2.0	-2.0	1.0	-2.0	-3.0	-4.0	-5.0	-2.0	0.0	-3.0	1.0	5.0
867	55.05	17.33	-0.33	-3.33	-3.33	-5.33	1.67	-7.33	-4.33	-9.33	0.67	-2.33	-7.33	-5.33	-8.33	-4.33	1.67	-6.33	-5.33	-7.33	-9.33	-8.33	-7.33	-9.33	-6.33	-4.33	-3.33	-4.33
898	57.025	18.0	3.0	-3.0	-3.0	-6.0	-7.0	-2.0	-6.0	-8.0	-8.0	-7.0	-3.0	-8.0	-4.0	-5.0	1.0	-1.0	-7.0	-5.0	-12.0	-9.0	-6.0	0.0	-9.0	-2.0	-4.0	-5.0
929	59.001	15.33	4.67	-6.33	-5.33	1.67	-1.33	2.67	-0.33	-0.33	-2.33	2.67	7.67	0.67	-5.33	-5.33	2.67	5.67	2.67	0.67	-2.33	-1.33	9.67	-1.33	2.67	0.67	4.67	-4.33
960	60.978	15.33	7.67	1.67	-0.33	-3.33	-0.33	2.67	1.67	-3.33	0.67	-3.33	1.67	4.67	-2.33	0.67	-7.33	-1.33	1.67	0.67	-1.33	0.67	1.67	-5.33	-5.33	-3.33	-4.33	1.67
991	62.958	18.33	3.67	-2.33	1.67	-2.33	-6.33	-2.33	-7.33	5.67	3.67	-3.33	-2.33	-1.33	-2.33	-3.33	2.67	-3.33	-5.33	0.67	-4.33	9.67	-15.33	-7.33	-9.33	0.67	-2.33	-3.33
1022	64.94	16.0	22.0	11.0	12.0	10.0	4.0	0.0	3.0	11.0	8.0	10.0	1.0	6.0	11.0	1.0	7.0	7.0	1.0	-2.0	3.0	3.0	9.0	2.0	6.0	1.0	1.0	5.0
1053	66.924	16.67	10.33	13.33	15.33	8.33	5.33	16.33	3.33	8.33	1.33	8.33	4.33	-3.67	8.33	-0.67	6.33	7.33	10.33	13.33	0.33	1.33	16.33	14.33	5.33	8.33	-0.67	2.33
1084	68.91	17.67	6.33	-1.67	0.33	-3.67	-2.67	-0.67	2.33	7.33	13.33	-4.67	1.33	4.33	-7.67	0.33	5.33	0.33	6.33	0.33	7.33	2.33	2.33	0.33	1.33	2.33	6.33	6.33
1115	70.899	11.0	4.0	6.0	16.0	1.0	13.0	10.0	2.0	13.0	8.0	5.0	10.0	10.0	13.0	9.0	5.0	7.0	11.0	-1.0	9.0	11.0	12.0	9.0	9.0	6.0	8.0	-1.0
1146	72.891	29.33	10.67	0.67	6.67	1.67	-4.33	2.67	-6.33	13.67	1.67	3.67	0.67	0.67	8.67	4.67	-1.33	5.67	7.67	1.67	3.67	2.67	6.67	0.67	10.67	16.67	8.67	9.67
1177	74.885	30.33	2.67	-0.33	9.67	9.67	2.67	4.67	16.67	0.67	19.67	10.67	13.67	6.67	7.67	0.67	15.67	-0.33	6.67	13.67	16.67	17.67	7.67	1.67	4.67	0.67	14.67	15.67
1208	76.883	15.0	1.0	6.0	8.0	8.0	-4.0	4.0	7.0	11.0	8.0	3.0	1.0	7.0	10.0	6.0	5.0	1.0	-3.0	2.0	8.0	8.0	-1.0	4.0	6.0	5.0	10.0	5.0
1239	78.883	15.0	6.0	2.0	12.0	4.0	3.0	6.0	10.0	2.0	1.0	8.0	0.0	11.0	13.0	13.0	8.0	2.0	15.0	2.0	7.0	6.0	5.0	8.0	3.0	8.0	-1.0	9.0
1270	80.887	12.67	3.33	11.33	15.33	16.33	14.33	17.33	12.33	21.33	12.33	24.33	16.33	17.33	25.33	18.33	19.33	8.33	14.33	16.33	19.33	21.33	17.33	14.33	21.33	10.33	8.33	15.33
1301	82.894	21.0	63.0	63.0	69.0	80.0	72.0	37.0	50.0	48.0	44.0	32.0	34.0	46.0	37.0	40.0	34.0	36.0	33.0	34.0	26.0	31.0	35.0	23.0	41.0	27.0	38.0	25.0
1332	84.905	31.33	41.67	62.67	41.67	37.67	42.67	33.67	38.67	34.67	25.67	31.67	40.67	34.67	28.67	25.67	31.67	27.67	25.67	25.67	17.67	21.67	26.67	11.67	30.67	19.67	25.67	26.67
1363	86.92	24.67	6.33	8.33	12.33	0.33	11.33	12.33	2.33	-0.67	5.33	7.33	-3.67	8.33	3.33	13.33	2.33	0.33	-3.67	4.33	-2.67	8.33	10.33	14.33	-2.67	7.33	6.33	16.33
1394	88.938	26.0	2.0	9.0	5.0	-3.0	-1.0	6.0	6.0	-2.0	0.0	5.0	1.0	1.0	7.0	6.0	2.0	1.0	8.0	4.0	4.0	8.0	5.0	1.0	6.0	7.0	11.0	9.0
1425	90.961	22.33	5.67	2.67	14.67	3.67	1.67	11.67	3.67	8.67	21.67	16.67	8.67	11.67	13.67	4.67	6.67	3.67	25.67	5.67	12.67	11.67	5.67	8.67	24.67	6.67	8.67	12.67
1456	92.987	25.0	-2.0	9.0	-3.0	6.0	7.0	2.0	15.0	19.0	5.0	4.0	21.0	17.0	17.0	7.0	9.0	11.0	7.0	8.0	7.0	6.0	16.0	12.0	5.0	3.0	6.0	15.0
1487	95.018	34.67	-7.67	-7.67	2.33	1.33	4.33	-6.67	-1.67	2.33	-5.67	-9.67	3.33	7.33	-9.67	-2.67	2.33	-7.67	2.33	-8.67	-5.67	-2.67	6.33	-2.67	-4.67	10.33	-5.67	-2.67
1518	97.054	26.67	14.33	25.33	37.33	29.33	31.33	30.33	26.33	48.33	24.33	41.33	28.33	24.33	24.33	37.33	28.33	43.33	37.33	30.33	21.33	39.33	29.33	31.33	28.33	26.33	30.33	29.33
1549	99.094	26.0	10.0	11.0	16.0	13.0	13.0	12.0	12.0	3.0	3.0	7.0	17.0	7.0	12.0	0.0	8.0	10.0	10.0	5.0	14.0	7.0	9.0	15.0	6.0	7.0	3.0	13.0
1580	101.14	26.33	1.67	-2.33	0.67	11.67	5.67	8.67	0.67	1.67	8.67	8.67	9.67	5.67	15.67	17.67	11.67	1.67	12.67	4.67	14.67	5.67	11.67	5.67	11.67	11.67	9.67	12.67
1611	103.19	24.67	6.33	7.33	8.33	6.33	4.33	18.33	8.33	5.33	13.33	3.33	7.33	8.33	9.33	12.33	23.33	12.33	9.33	9.33	13.33	9.33	25.33	25.33	5.33	3.33	19.33	5.33
1642	105.245	25.33	-2.33	3.67	2.67	-1.33	6.67	10.67	1.67	-5.33	9.67	-0.33	0.67	15.67	-0.33	-2.33	16.67	8.67	2.67	-2.33	-3.33	4.67	3.67	-4.33	-2.33	7.67	2.67	1.67
1673	107.305	23.67	5.33	-3.67	-1.67	8.33	12.33	-5.67	3.33	-0.67	-2.67	3.33	8.33	4.33	-3.67	3.33	-2.67	5.33	1.33	-4.67	8.33	5.33	-4.67	8.33	4.33	6.33	13.33	0.33
1704	109.371	21.0	-4.0	3.0	-4.0	-5.0	3.0	6.0	11.0	5.0	10.0	3.0	6.0	2.0	2.0	9.0	2.0	-3.0	-2.0	0.0	6.0	5.0	1.0	4.0	5.0	6.0	9.0	8.0
1735	111.443	20.33	-3.33	-3.33	4.67	3.67	1.67	13.67	4.67	2.67	1.67	6.67	2.67	-1.33	2.67	6.67	4.67	5.67	-0.33	13.67	1.67	-0.33	12.67	-0.33	2.67	8.67	5.67	4.67
1766	113.52	12.33	5.67	18.67	18.67	4.67	0.67	12.67	11.67	6.67	10.67	13.67	13.67	16.67	10.67	16.67	12.67	11.67	8.67	15.67	15.67	12.67	11.67	-0.33	8.67	0.67	11.67	8.67
1797	115.604	15.67	5.33	4.33	9.33	1.33	1.33	0.33	4.33	-0.67	-1.67	5.33	1.33	2.33	-3.67	4.33	-3.67	-2.67	-3.67	-2.67	4.33	-1.67	7.33	2.33	8.33	5.33	5.33	-0.67
1828	117.693	15.67	-4.67	1.33	3.33	3.33	1.33	3.33	4.33	2.33	1.33	2.33	-1.67	-2.67	7.33	-0.67	-0.67	-0.67	0.33	2.33	4.33	2.33	2.33	0.33	5.33	2.33	4.33	-2.67
1859	119.788	12.67	-0.67	-0.67	1.33	0.33	2.33	4.33	0.33	-2.67	-0.67	-0.67	5.33	4.33	1.33	3.33	4.33	6.33	3.33	-1.67	3.33	5.33	-3.67	0.33	3.33	0.33	0.33	9.33
1890	121.89	13.0	7.0	0.0	-3.0	10.0	1.0	-8.0	0.0	1.0	-2.0	2.0	-4.0	-1.0	1.0	0.0	-8.0	3.0	-5.0	3.0	0.0	8.0	-3.0	-3.0	5.0	0.0	5.0	-2.0
1921	123.999	10.33	-4.33	-5.33	6.67	5.67	4.67	1.67	6.67	8.67	4.67	5.67	11.67	0.67	5.67	-0.33	-0.33	1.67	0.67	6.67	4.67	4.67	-4.33	5.67	-3.33	8.67	5.67	0.67
1952	126.114	10.0	1.0	-2.0	3.0	3.0	2.0	1.0	-4.0	2.0	2.0	-3.0	-1.0	4.0	2.0	-1.0	-2.0	4.0	0.0	3.0	9.0	-2.0	2.0	3.0	2.0	1.0	0.0	4.0
1983	128.235	7.67	0.33	8.33	-3.67	0.33	2.33	4.33	0.33	0.33	1.33	1.33	7.33	-1.67	-1.67	-0.67	0.33	8.33	0.33	4.33	6.33	1.33	4.33	1.33	-0.67	-2.67	2.33	-0.67
2014	130.364	9.33	-4.33	-0.33	-5.33	-1.33	2.67	0.67	2.67	1.67	-3.33	-2.33	-3.33	1.67	-0.33	5.67	2.67	2.67	2.67	-0.33	1.67	-0.33	-2.33	1.67	-1.33	1.67	-5.33	7.67
2045	132.5	5.67	-2.67	9.33	4.33	-1.67	4.33	7.33	0.33	8.33	3.33	2.33	2.33	1.33	4.33	2.33	2.33	4.33	1.33	1.33	1.33	8.33	3.33	2.33	8.33	5.33	3.33	10.33
2047	132.638	8.0	-1.0	0.0	2.0	3.0	-5.0	-2.0	0.0	-3.0	-6.0	4.0	0.0	2.0	4.0	6.0	-3.0	0.0	-1.0	1.0	1.0	4.0	3.0	4.0	-2.0	2.0	-5.0	-4.0

File: High pH SF 25C 4d.txt
Name: High pH SF 25C 4d
Number of Scans: 29
Positions: [-13.0, -12.75, -12.5, -12.25, -12.0, -11.75, -11.5, -11.25, -11.0, -10.75, -10.5, -10.25, -10.0, -9.75, -9.5, -9.25, -9.0, -8.75, -8.5, -8.25, -8.0, -7.75, -7.5, -7.25, -7.0, -6.75, -6.5, -6.25, -6.0]
Points per Scan: 2048
Sample Edge: 3
Scans Off Sample: [0, 1, 2]
Conversion Features: [(275, 17444.3), (309, 19608.3), (913, 57981.7), (934, 59318.24), (1058, 67244.3)]
Degree of Fit: 3
Fit Coeffecients: [ 8.59183e-07 -0.001482  64.3003 -144.207]
pH: High
Steel Fiber: True
Aging Temp.: 25
Aging Atm.: 100% CO2
Aging Humidity: None
Aging Time: 4

*********
#Bins	Energy [keV]	Avg. Background	-12.25	-12.0	-11.75	-11.5	-11.25	-11.0	-10.75	-10.5	-10.25	-10.0	-9.75	-9.5	-9.25	-9.0	-8.75	-8.5	-8.25	-8.0	-7.75	-7.5	-7.25	-7.0	-6.75	-6.5	-6.25	-6.0
30	1.783	18.67	1.33	-0.67	0.33	-2.67	-1.67	-4.67	-1.67	3.33	8.33	4.33	1.33	1.33	-1.67	0.33	5.33	3.33	10.33	3.33	-2.67	1.33	4.33	-1.67	6.33	-0.67	2.33	-0.67
61	3.773	0.0	1.0	1.0	1.0	0.0	0.0	1.0	0.0	0.0	1.0	2.0	0.0	0.0	0.0	0.0	1.0	1.0	1.0	3.0	0.0	0.0	1.0	0.0	1.0	0.0	0.0	0.0
92	5.76	1.67	-1.67	-1.67	-1.67	-0.67	-0.67	-0.67	-1.67	-0.67	0.33	-0.67	1.33	-0.67	-1.67	-1.67	-0.67	-1.67	-1.67	-0.67	-1.67	-1.67	-0.67	-1.67	-0.67	-0.67	-1.67	-1.67
123	7.744	5.0	0.0	-1.0	1.0	-3.0	1.0	-1.0	0.0	-1.0	0.0	0.0	1.0	-2.0	-4.0	3.0	-1.0	3.0	1.0	-2.0	0.0	1.0	-1.0	0.0	-1.0	2.0	1.0	2.0
154	9.726	7.0	1.0	3.0	4.0	2.0	-3.0	2.0	7.0	5.0	6.0	6.0	3.0	6.0	2.0	5.0	3.0	0.0	-1.0	6.0	7.0	9.0	6.0	0.0	3.0	9.0	8.0	6.0
185	11.706	12.33	8.67	-3.33	-3.33	-6.33	2.67	-1.33	0.67	-1.33	3.67	-2.33	3.67	0.67	0.67	0.67	-1.33	-2.33	0.67	6.67	-4.33	-5.33	8.67	-4.33	-1.33	0.67	1.67	1.67
216	13.684	9.33	-5.33	-6.33	1.67	0.67	-0.33	-4.33	-1.33	-1.33	5.67	2.67	0.67	4.67	0.67	-0.33	8.67	6.67	2.67	1.67	0.67	4.67	1.67	7.67	5.67	7.67	1.67	2.67
247	15.661	5.0	9.0	8.0	11.0	0.0	5.0	8.0	11.0	6.0	3.0	5.0	9.0	9.0	14.0	10.0	5.0	5.0	8.0	12.0	7.0	12.0	11.0	4.0	3.0	7.0	9.0	9.0
278	17.635	9.33	2.67	1.67	9.67	-3.33	2.67	3.67	1.67	0.67	1.67	-2.33	-1.33	2.67	0.67	1.67	-3.33	0.67	-0.33	-0.33	1.67	0.67	3.67	13.67	-0.33	3.67	0.67	1.67
309	19.608	7.67	7.33	5.33	1.33	3.33	4.33	10.33	5.33	7.33	1.33	-1.67	5.33	3.33	0.33	1.33	3.33	4.33	1.33	9.33	4.33	8.33	6.33	1.33	5.33	3.33	1.33	8.33
340	21.58	11.67	-3.67	1.33	3.33	-4.67	-2.67	-2.67	-1.67	-1.67	-2.67	-5.67	-0.67	2.33	-4.67	4.33	-4.67	0.33	1.33	-2.67	3.33	-1.67	0.33	-3.67	1.33	2.33	-3.67	1.33
371	23.551	9.33	0.67	-2.33	1.67	3.67	2.67	-0.33	0.67	0.67	2.67	-2.33	9.67	2.67	-2.33	4.67	1.67	3.67	-0.33	-1.33	1.67	1.67	1.67	-0.33	1.67	6.67	1.67	7.67
402	25.521	8.33	0.67	0.67	2.67	2.67	1.67	-0.33	5.67	3.67	5.67	1.67	0.67	5.67	1.67	-0.33	0.67	-1.33	-0.33	1.67	1.67	3.67	-1.33	2.67	0.67	3.67	6.67	4.67
433	27.49	7.0	4.0	2.0	-3.0	3.0	0.0	1.0	3.0	2.0	-1.0	1.0	-3.0	-2.0	-2.0	2.0	-2.0	-1.0	0.0	-1.0	2.0	-1.0	-1.0	1.0	5.0	1.0	0.0	-1.0
464	29.458	5.67	-1.67	9.33	0.33	1.33	0.33	4.33	0.33	3.33	-2.67	0.33	-2.67	-0.67	4.33	2.33	2.33	-0.67	-0.67	2.33	2.33	2.33	6.33	2.33	0.33	3.33	0.33	8.33
495	31.426	4.33	1.67	0.67	7.67	2.67	-2.33	-2.33	-1.33	-0.33	2.67	2.67	2.67	5.67	2.67	5.67	8.67	2.67	1.67	5.67	-0.33	2.67	3.67	3.67	-1.33	0.67	8.67	4.67
526	33.393	5.67	1.33	-0.67	-0.67	-1.67	-2.67	2.33	-2.67	2.33	-0.67	1.33	-1.67	0.33	1.33	1.33	-2.67	1.33	3.33	5.33	0.33	2.33	3.33	-2.67	3.33	-1.67	-1.67	2.33
557	35.36	5.67	-4.67	3.33	2.33	6.33	-0.67	-0.67	-1.67	-1.67	1.33	-3.67	-1.67	3.33	-0.67	1.33	0.33	1.33	-1.67	-0.67	-0.67	-2.67	0.33	0.33	0.33	-1.67	0.33	1.33
588	37.327	6.67	-1.67	-1.67	-5.67	4.33	-0.67	-2.67	-1.67	-2.67	-2.67	0.33	-3.67	1.33	5.33	-2.67	-0.67	-0.67	-1.67	1.33	-0.67	-1.67	-0.67	-0.67	-2.67	5.33	-1.67	-1.67
619	39.294	6.67	1.33	1.33	-2.67	-0.67	-3.67	-6.67	-0.67	-1.67	-2.67	2.33	-0.67	-1.67	-0.67	-0.67	-1.67	-0.67	-0.67	0.33	-3.67	-0.67	3.33	-1.67	-4.67	2.33	-3.67	8.33
650	41.261	8.0	2.0	-3.0	-5.0	-5.0	-7.0	-4.0	-4.0	-1.0	-3.0	-2.0	4.0	-2.0	-7.0	-2.0	-5.0	-2.0	-4.0	-5.0	-5.0	1.0	-3.0	2.0	-3.0	1.0	1.0	0.0
681	43.228	8.67	-1.67	-1.67	-5.67	-1.67	-2.67	-0.67	-1.67	2.33	-3.67	-5.67	-4.67	-2.67	-1.67	-0.67	-5.67	-3.67	1.33	-0.67	-3.67	-4.67	2.33	-0.67	-4.67	-4.67	0.33	-0.67
712	45.196	9.33	-0.33	-2.33	-2.33	-6.33	6.67	-2.33	0.67	-2.33	-4.33	1.67	-3.33	-1.33	-3.33	-1.33	-4.33	1.67	-5.33	-0.33	-0.33	-3.33	-3.33	-0.33	-1.33	-0.33	-0.33	-3.33
743	47.165	10.67	-0.67	6.33	-6.67	0.33	-0.67	-0.67	-3.67	-4.67	-2.67	-5.67	0.33	0.33	-5.67	-4.67	-3.67	-7.67	-5.67	-6.67	-3.67	-3.67	-8.67	-6.67	1.33	-6.67	-6.67	-4.67
774	49.135	13.67	-5.67	-3.67	-5.67	-5.67	0.33	-7.67	-7.67	-0.67	-6.67	-3.67	-3.67	-5.67	-6.67	-3.67	0.33	-6.67	-0.67	-2.67	-0.67	-3.67	-6.67	-6.67	-3.67	-4.67	-2.67	-4.67
805	51.105	13.67	2.33	-4.67	-0.67	0.33	18.33	41.33	20.33	14.33	17.33	17.33	10.33	20.33	3.33	12.33	32.33	13.33	11.33	6.33	5.33	14.33	9.33	10.33	17.33	5.33	8.33	6.33
836	53.077	18.33	-6.33	-7.33	-4.33	-0.33	-1.33	-7.33	-7.33	-4.33	-1.33	-9.33	-9.33	-3.33	1.67	-6.33	-6.33	-1.33	-3.33	-8.33	-7.33	-3.33	-12.33	-4.33	-3.33	-4.33	-10.33	-5.33
867	55.05	15.67	-10.67	-7.67	-1.67	-1.67	-9.67	-5.67	-2.67	-3.67	2.33	-7.67	-0.67	-8.67	-8.67	0.33	-3.67	0.33	-8.67	1.33	2.33	-0.67	-4.67	-6.67	-0.67	-3.67	0.33	-5.67
898	57.025	17.0	-2.0	-3.0	-10.0	0.0	-6.0	1.0	-2.0	-3.0	2.0	-5.0	-4.0	-6.0	-2.0	-5.0	1.0	-4.0	-6.0	-5.0	-4.0	-5.0	-8.0	-7.0	-4.0	-3.0	-9.0	-3.0
929	59.001	20.0	-8.0	-4.0	3.0	-5.0	-6.0	-5.0	1.0	4.0	-7.0	-8.0	3.0	-7.0	-4.0	-3.0	-6.0	-1.0	-3.0	-5.0	-5.0	-6.0	-1.0	-7.0	-7.0	-1.0	-6.0	-1.0
960	60.978	19.67	-3.67	2.33	-4.67	-0.67	-3.67	-8.67	-4.67	-8.67	-1.67	-6.67	-10.67	-7.67	-4.67	-4.67	-0.67	-8.67	-2.67	-2.67	-2.67	-0.67	-3.67	-5.67	-0.67	2.33	-2.67	-6.67
991	62.958	19.33	2.67	2.67	1.67	2.67	-2.33	-2.33	1.67	-8.33	-9.33	-5.33	-8.33	2.67	-4.33	-7.33	-1.33	-6.33	-4.33	-12.33	-3.33	-10.33	-7.33	-1.33	-8.33	-7.33	-9.33	-2.33
1022	64.94	23.0	-2.0	12.0	7.0	8.0	6.0	5.0	2.0	15.0	0.0	0.0	-2.0	7.0	-3.0	1.0	-2.0	5.0	-6.0	-5.0	0.0	-7.0	-4.0	-1.0	-6.0	0.0	6.0	-4.0
1053	66.924	15.33	6.67	6.67	11.67	3.67	19.67	11.67	8.67	0.67	7.67	10.67	6.67	2.67	1.67	5.67	5.67	8.67	7.67	6.67	9.67	9.67	5.67	5.67	3.67	2.67	11.67	14.67
1084	68.91	14.33	-3.33	2.67	17.67	12.67	5.67	10.67	6.67	-2.33	2.67	-0.33	11.67	1.67	-3.33	5.67	0.67	1.67	9.67	-1.33	11.67	7.67	5.67	1.67	5.67	9.67	15.67	1.67
1115	70.899	11.67	-0.67	8.33	0.33	11.33	3.33	6.33	5.33	7.33	13.33	5.33	10.33	4.33	11.33	8.33	0.33	6.33	8.33	3.33	7.33	0.33	3.33	18.33	3.33	3.33	1.33	0.33
1146	72.891	26.33	-0.33	8.67	-3.33	22.67	7.67	2.67	4.67	2.67	14.67	10.67	3.67	6.67	3.67	5.67	-0.33	10.67	8.67	1.67	5.67	13.67	9.67	2.67	0.67	1.67	1.67	7.67
1177	74.885	31.0	-4.0	5.0	6.0	12.0	5.0	12.0	19.0	7.0	14.0	13.0	-2.0	0.0	11.0	4.0	5.0	8.0	13.0	1.0	13.0	5.0	6.0	8.0	10.0	5.0	8.0	-6.0
1208	76.883	16.67	2.33	1.33	1.33	4.33	2.33	6.33	5.33	4.33	4.33	10.33	11.33	4.33	0.33	-1.67	-0.67	5.33	-5.67	8.33	10.33	-2.67	2.33	3.33	0.33	-0.67	4.33	1.33
1239	78.883	14.0	6.0	6.0	12.0	15.0	15.0	13.0	10.0	12.0	13.0	10.0	18.0	8.0	10.0	6.0	15.0	9.0	11.0	14.0	9.0	13.0	8.0	12.0	8.0	2.0	15.0	12.0
1270	80.887	17.67	-3.67	1.33	8.33	5.33	2.33	15.33	6.33	-0.67	5.33	20.33	5.33	19.33	3.33	13.33	2.33	11.33	-2.67	16.33	6.33	9.33	6.33	20.33	4.33	13.33	4.33	-2.67
1301	82.894	15.33	62.67	116.67	90.67	78.67	73.67	60.67	51.67	52.67	61.67	40.67	40.67	44.67	41.67	49.67	51.67	46.67	59.67	51.67	61.67	38.67	46.67	47.67	40.67	34.67	28.67	35.67
[...]
1394	88.938	20.67	14.33	8.33	9.33	18.33	13.33	13.33	8.33	10.33	7.33	5.33	9.33	12.33	12.33	12.33	11.33	15.33	9.33	11.33	6.33	6.33	9.33	12.33	10.33	1.33	2.33	24.33
1425	90.961	22.67	17.33	0.33	11.33	8.33	10.33	4.33	18.33	15.33	11.33	12.33	19.33	5.33	11.33	4.33	15.33	14.33	11.33	4.33	11.33	15.33	4.33	10.33	5.33	15.33	17.33	7.33
1456	92.987	30.0	0.0	5.0	-3.0	5.0	6.0	3.0	-8.0	-6.0	10.0	0.0	8.0	-2.0	8.0	10.0	4.0	7.0	7.0	4.0	2.0	6.0	8.0	6.0	16.0	13.0	10.0	8.0
1487	95.018	28.67	7.33	-3.67	4.33	6.33	-0.67	3.33	8.33	4.33	8.33	1.33	6.33	0.33	8.33	8.33	4.33	12.33	2.33	10.33	8.33	0.33	10.33	6.33	-0.67	7.33	5.33	8.33
1518	97.054	23.67	16.33	19.33	13.33	25.33	35.33	28.33	29.33	31.33	47.33	26.33	55.33	31.33	31.33	42.33	29.33	34.33	41.33	22.33	26.33	28.33	32.33	40.33	34.33	32.33	41.33	38.33
1549	99.094	31.33	0.67	-2.33	7.67	2.67	8.67	12.67	23.67	10.67	3.67	4.67	10.67	-1.33	13.67	1.67	5.67	2.67	4.67	12.67	10.67	4.67	10.67	13.67	5.67	1.67	2.67	6.67
1580	101.14	27.67	4.33	12.33	10.33	-1.67	0.33	6.33	13.33	12.33	1.33	8.33	11.33	1.33	15.33	6.33	-2.67	7.33	7.33	1.33	14.33	6.33	9.33	6.33	7.33	5.33	8.33	5.33
1611	103.19	25.33	12.67	18.67	21.67	18.67	4.67	8.67	8.67	-5.33	-1.33	6.67	-0.33	11.67	0.67	1.67	13.67	6.67	8.67	10.67	3.67	15.67	6.67	13.67	9.67	3.67	8.67	-1.33
1642	105.245	31.33	1.67	-6.33	0.67	-12.33	10.67	-11.33	0.67	-4.33	-6.33	-5.33	-3.33	-5.33	-9.33	-7.33	-3.33	-1.33	-3.33	-6.33	-3.33	-6.33	-13.33	4.67	2.67	10.67	-0.33	-2.33
1673	107.305	24.67	-0.67	7.33	-0.67	-3.67	-2.67	2.33	-2.67	5.33	2.33	1.33	-4.67	8.33	-2.67	-3.67	8.33	-2.67	0.33	7.33	7.33	-0.67	-4.67	5.33	0.33	7.33	3.33	12.33
1704	109.371	20.67	4.33	-6.67	1.33	-0.67	1.33	10.33	12.33	5.33	-2.67	4.33	3.33	1.33	2.33	1.33	-0.67	15.33	1.33	16.33	3.33	-1.67	4.33	11.33	16.33	7.33	4.33	6.33
1735	111.443	18.0	6.0	9.0	4.0	10.0	8.0	4.0	7.0	2.0	8.0	4.0	4.0	14.0	8.0	11.0	3.0	0.0	10.0	9.0	4.0	6.0	10.0	2.0	7.0	-5.0	15.0	10.0
1766	113.52	23.33	-3.33	9.67	-4.33	-0.33	2.67	-6.33	-7.33	-3.33	-8.33	-13.33	0.67	-1.33	-6.33	-6.33	-3.33	1.67	3.67	-12.33	-3.33	-9.33	5.67	-2.33	-1.33	7.67	0.67	-0.33
1797	115.604	15.67	-3.67	3.33	-3.67	-1.67	0.33	4.33	4.33	-6.67	6.33	2.33	1.33	5.33	1.33	3.33	-1.67	1.33	-3.67	6.33	5.33	-1.67	2.33	-2.67	7.33	-3.67	8.33	0.33
1828	117.693	10.67	-0.67	3.33	12.33	-0.67	1.33	5.33	4.33	9.33	10.33	6.33	10.33	6.33	5.33	1.33	6.33	3.33	0.33	4.33	13.33	6.33	9.33	9.33	7.33	10.33	2.33	4.33
1859	119.788	13.67	3.33	-3.67	5.33	0.33	-1.67	0.33	-2.67	-3.67	6.33	-2.67	-1.67	2.33	5.33	2.33	2.33	6.33	-2.67	-4.67	-5.67	-0.67	-2.67	3.33	4.33	1.33	2.33	4.33
1890	121.89	11.0	-3.0	-7.0	9.0	5.0	7.0	0.0	-1.0	-2.0	2.0	5.0	5.0	10.0	6.0	13.0	5.0	3.0	-1.0	2.0	-1.0	0.0	-1.0	14.0	1.0	5.0	2.0	2.0
1921	123.999	11.33	1.67	-1.33	-2.33	-0.33	1.67	1.67	-4.33	-4.33	-2.33	0.67	3.67	2.67	-7.33	-3.33	0.67	1.67	-1.33	1.67	7.67	2.67	12.67	1.67	-1.33	-0.33	-3.33	-3.33
1952	126.114	7.33	0.67	6.67	1.67	2.67	8.67	3.67	8.67	12.67	-0.33	6.67	1.67	3.67	-0.33	9.67	5.67	7.67	2.67	2.67	8.67	6.67	12.67	3.67	1.67	0.67	11.67	-0.33
1983	128.235	9.67	0.33	2.33	0.33	0.33	-2.67	-2.67	2.33	0.33	9.33	2.33	0.33	3.33	-3.67	4.33	0.33	-1.67	-1.67	0.33	0.33	7.33	2.33	3.33	3.33	4.33	-4.67	3.33
2014	130.364	7.67	4.33	-2.67	0.33	0.33	6.33	-0.67	-1.67	1.33	0.33	1.33	-4.67	1.33	1.33	3.33	-0.67	0.33	-0.67	-0.67	1.33	6.33	1.33	2.33	1.33	4.33	3.33	7.33
2045	132.5	8.33	3.67	2.67	-2.33	6.67	-0.33	-2.33	-0.33	-2.33	2.67	3.67	-0.33	-1.33	-2.33	-2.33	0.67	4.67	-0.33	1.67	-0.33	0.67	2.67	-1.33	2.67	4.67	8.67	2.67
2047	132.638	7.0	0.0	4.0	-1.0	0.0	1.0	2.0	5.0	1.0	5.0	4.0	1.0	2.0	2.0	0.0	1.0	-1.0	4.0	-5.0	3.0	1.0	6.0	4.0	-1.0	3.0	4.0	7.0