Folder: EDX-Concrete-Analysis/EDX Back Ups and Old Files/EDX Processed Data (part 11)

File: Low pH SF Ref.txt
Name: Low pH SF Ref
Number of Scans: 29
Positions: [-13.0, -12.75, -12.5, -12.25, -12.0, -11.75, -11.5, -11.25, -11.0, -10.75, -10.5, -10.25, -10.0, -9.75, -9.5, -9.25, -9.0, -8.75, -8.5, -8.25, -8.0, -7.75, -7.5, -7.25, -7.0, -6.75, -6.5, -6.25, -6.0]
Points per Scan: 2048
Sample Edge: 3
Scans Off Sample: [0, 1, 2]
Conversion Features: [(275, 17444.3), (309, 19608.3), (913, 57981.7), (934, 59318.24), (1058, 67244.3)]
Degree of Fit: 3
Fit Coeffecients: [ 8.59183e-07 -0.001482  64.3003 -144.207]
pH: Low
Steel Fiber: True
Aging Temp.: 25
Aging Atm.: 100% CO2
Aging Humidity: None
Aging Time: 0

*********
#Bins	Energy [keV]	Avg. Background	-12.25	-12.0	-11.75	-11.5	-11.25	-11.0	-10.75	-10.5	-10.25	-10.0	-9.75	-9.5	-9.25	-9.0	-8.75	-8.5	-8.25	-8.0	-7.75	-7.5	-7.25	-7.0	-6.75	-6.5	-6.25	-6.0
31	1.848	18.33	-4.33	-10.33	-7.33	-4.33	-8.33	-3.33	-4.33	-5.33	-6.33	0.67	2.67	-6.33	-6.33	2.67	-4.33	-5.33	1.67	-7.33	0.67	-4.33	-4.33	-2.33	-2.33	-3.33	-7.33	-4.33
63	3.901	0.67	0.33	-0.67	0.33	0.33	-0.67	0.33	-0.67	-0.67	0.33	-0.67	-0.67	-0.67	0.33	-0.67	0.33	0.33	-0.67	-0.67	-0.67	-0.67	0.33	2.33	-0.67	1.33	0.33	-0.67
95	5.952	0.67	1.33	-0.67	-0.67	0.33	0.33	-0.67	-0.67	1.33	-0.67	-0.67	1.33	1.33	1.33	-0.67	1.33	-0.67	-0.67	-0.67	0.33	-0.67	1.33	-0.67	0.33	0.33	-0.67	-0.67
127	8.0	4.0	1.0	1.0	-1.0	3.0	3.0	3.0	2.0	-1.0	3.0	0.0	-2.0	1.0	2.0	3.0	0.0	6.0	1.0	3.0	3.0	2.0	0.0	2.0	2.0	2.0	5.0	4.0
159	10.046	7.33	6.67	1.67	1.67	3.67	3.67	10.67	-0.33	3.67	6.67	6.67	7.67	5.67	6.67	1.67	4.67	3.67	2.67	4.67	2.67	7.67	4.67	5.67	-1.33	4.67	5.67	12.67
191	12.089	9.0	-4.0	2.0	1.0	5.0	2.0	-2.0	6.0	3.0	7.0	2.0	6.0	4.0	-2.0	2.0	7.0	5.0	1.0	5.0	11.0	3.0	-1.0	-1.0	2.0	9.0	1.0	5.0
223	14.131	6.33	4.67	0.67	8.67	8.67	11.67	6.67	5.67	0.67	5.67	9.67	0.67	4.67	7.67	4.67	11.67	8.67	10.67	7.67	1.67	2.67	14.67	1.67	3.67	3.67	8.67	1.67
255	16.17	11.0	2.0	-1.0	-3.0	2.0	5.0	0.0	6.0	1.0	7.0	-5.0	-1.0	0.0	5.0	-2.0	-1.0	-1.0	2.0	4.0	-2.0	-2.0	4.0	-5.0	-3.0	4.0	7.0	-1.0
287	18.208	7.67	0.33	5.33	2.33	4.33	0.33	2.33	4.33	5.33	2.33	5.33	1.33	0.33	2.33	5.33	-1.67	3.33	7.33	4.33	5.33	0.33	2.33	11.33	5.33	9.33	2.33	8.33
319	20.245	10.67	3.33	-0.67	0.33	1.33	-2.67	2.33	-0.67	0.33	1.33	0.33	-1.67	-0.67	-0.67	-1.67	1.33	-1.67	-1.67	3.33	0.33	-3.67	-0.67	-2.67	1.33	2.33	3.33	0.33
351	22.28	7.67	5.33	-5.67	1.33	4.33	-0.67	1.33	6.33	-2.67	7.33	6.33	0.33	1.33	7.33	0.33	1.33	1.33	2.33	0.33	2.33	4.33	5.33	2.33	-1.67	4.33	7.33	1.33
383	24.314	6.67	1.33	1.33	0.33	6.33	-3.67	1.33	-1.67	6.33	-0.67	0.33	2.33	4.33	1.33	4.33	4.33	6.33	-1.67	2.33	5.33	3.33	4.33	1.33	4.33	2.33	10.33	1.33
415	26.347	4.67	4.33	-1.67	-0.67	1.33	2.33	2.33	6.33	6.33	2.33	4.33	6.33	2.33	2.33	4.33	6.33	8.33	8.33	0.33	5.33	4.33	4.33	1.33	1.33	3.33	4.33	2.33
447	28.379	6.67	0.33	-6.67	-4.67	2.33	5.33	2.33	3.33	7.33	0.33	3.33	6.33	3.33	2.33	1.33	1.33	5.33	6.33	-1.67	-1.67	-1.67	-3.67	2.33	7.33	1.33	4.33	4.33
479	30.41	6.0	-1.0	0.0	2.0	1.0	-1.0	-1.0	1.0	1.0	2.0	4.0	-1.0	2.0	2.0	2.0	1.0	4.0	6.0	5.0	3.0	10.0	1.0	2.0	4.0	0.0	0.0	2.0
511	32.441	6.33	-0.33	1.67	-2.33	0.67	-0.33	-0.33	0.67	2.67	-2.33	-1.33	0.67	-3.33	3.67	0.67	-2.33	-2.33	-2.33	1.67	6.67	1.67	1.67	-1.33	2.67	-3.33	0.67	5.67
543	34.471	3.67	2.33	6.33	1.33	0.33	1.33	3.33	1.33	-1.67	0.33	5.33	7.33	3.33	3.33	2.33	1.33	-0.67	0.33	-1.67	4.33	6.33	2.33	1.33	11.33	-0.67	3.33	3.33
575	36.502	4.67	2.33	0.33	3.33	-0.67	0.33	-0.67	3.33	1.33	1.33	0.33	1.33	-0.67	3.33	0.33	1.33	0.33	2.33	-2.67	3.33	-2.67	1.33	1.33	4.33	-1.67	-0.67	2.33
607	38.532	3.33	12.67	2.67	1.67	4.67	3.67	1.67	2.67	3.67	4.67	-0.33	2.67	3.67	7.67	-0.33	5.67	3.67	4.67	-0.33	-0.33	-0.33	2.67	-1.33	5.67	-2.33	-0.33	-2.33
639	40.563	5.0	-1.0	-1.0	-1.0	3.0	1.0	-1.0	8.0	-2.0	-1.0	-2.0	0.0	0.0	0.0	3.0	-1.0	0.0	0.0	-1.0	5.0	3.0	2.0	-3.0	-4.0	3.0	-2.0	1.0
671	42.594	4.67	-0.67	1.33	-0.67	3.33	-0.67	2.33	4.33	-0.67	-1.67	-1.67	-2.67	-1.67	2.33	1.33	5.33	5.33	1.33	0.33	-0.67	0.33	-0.67	1.33	6.33	1.33	-0.67	6.33
703	44.625	6.0	-2.0	2.0	4.0	0.0	4.0	5.0	0.0	3.0	-1.0	4.0	3.0	3.0	-5.0	-2.0	-2.0	3.0	5.0	-2.0	-1.0	0.0	1.0	7.0	5.0	4.0	3.0	3.0
735	46.657	7.33	3.67	2.67	4.67	-2.33	1.67	0.67	3.67	-1.33	4.67	-1.33	3.67	-2.33	5.67	-0.33	0.67	-3.33	6.67	-0.33	2.67	-0.33	-0.33	0.67	1.67	-2.33	0.67	0.67
767	48.69	8.0	0.0	-2.0	-3.0	-2.0	-2.0	3.0	-4.0	0.0	1.0	1.0	-1.0	8.0	5.0	1.0	2.0	8.0	3.0	-2.0	-1.0	4.0	6.0	4.0	1.0	-3.0	-4.0	-3.0
799	50.724	9.67	7.33	-5.67	-1.67	3.33	3.33	3.33	3.33	6.33	0.33	-0.67	2.33	2.33	3.33	2.33	-3.67	-1.67	-0.67	1.33	-4.67	0.33	9.33	0.33	-4.67	-5.67	-0.67	-4.67
831	52.759	8.0	5.0	0.0	0.0	7.0	4.0	8.0	4.0	7.0	1.0	3.0	-1.0	-2.0	-2.0	8.0	5.0	3.0	6.0	4.0	6.0	2.0	3.0	0.0	3.0	7.0	6.0	0.0
863	54.795	14.0	-1.0	-2.0	1.0	-3.0	-2.0	8.0	2.0	1.0	3.0	5.0	6.0	4.0	-1.0	4.0	7.0	-1.0	2.0	0.0	2.0	1.0	-2.0	-3.0	3.0	-9.0	3.0	-4.0
895	56.833	12.0	-2.0	4.0	2.0	2.0	5.0	7.0	6.0	16.0	11.0	4.0	2.0	7.0	10.0	5.0	10.0	4.0	-4.0	4.0	-1.0	4.0	0.0	0.0	-2.0	3.0	2.0	-5.0
927	58.873	13.67	4.33	6.33	13.33	28.33	22.33	17.33	32.33	13.33	7.33	16.33	13.33	10.33	10.33	2.33	8.33	5.33	22.33	12.33	21.33	15.33	4.33	-0.67	6.33	11.33	3.33	13.33
959	60.915	10.67	-5.67	1.33	0.33	11.33	10.33	17.33	26.33	32.33	24.33	3.33	9.33	6.33	2.33	17.33	11.33	12.33	14.33	6.33	13.33	11.33	15.33	6.33	4.33	0.33	4.33	1.33
991	62.958	13.33	7.67	0.67	13.67	41.67	57.67	38.67	43.67	46.67	29.67	18.67	35.67	36.67	28.67	49.67	17.67	16.67	19.67	29.67	30.67	17.67	24.67	23.67	31.67	11.67	23.67	11.67
1023	65.004	16.33	-8.33	-3.33	6.67	8.67	8.67	15.67	6.67	15.67	9.67	10.67	10.67	8.67	7.67	12.67	8.67	13.67	11.67	10.67	-1.33	6.67	14.67	5.67	3.67	4.67	11.67	1.67
1055	67.052	14.33	2.67	13.67	8.67	20.67	25.67	31.67	27.67	20.67	21.67	20.67	17.67	12.67	20.67	58.67	42.67	33.67	24.67	29.67	31.67	30.67	21.67	3.67	19.67	13.67	12.67	18.67
1087	69.103	14.67	-1.67	9.33	33.33	47.33	48.33	38.33	13.33	25.33	47.33	24.33	52.33	70.33	50.33	52.33	43.33	14.33	21.33	15.33	26.33	15.33	17.33	28.33	38.33	22.33	22.33	31.33
1119	71.156	9.33	2.67	4.67	6.67	18.67	22.67	23.67	21.67	35.67	19.67	23.67	9.67	7.67	2.67	23.67	11.67	10.67	7.67	10.67	10.67	11.67	16.67	16.67	14.67	15.67	17.67	15.67
1151	73.212	24.67	4.33	2.33	16.33	55.33	52.33	53.33	50.33	29.33	55.33	28.33	27.33	10.33	18.33	29.33	14.33	16.33	19.33	24.33	29.33	9.33	1.33	15.33	15.33	12.33	7.33	12.33
1183	75.272	38.0	6.0	3.0	28.0	34.0	44.0	60.0	122.0	109.0	68.0	88.0	65.0	54.0	17.0	56.0	44.0	34.0	52.0	44.0	50.0	44.0	77.0	80.0	87.0	64.0	59.0	40.0
1215	77.334	12.33	1.67	8.67	73.67	75.67	82.67	58.67	36.67	43.67	93.67	60.67	28.67	26.67	19.67	19.67	29.67	26.67	17.67	28.67	24.67	1.67	23.67	9.67	23.67	25.67	22.67	15.67
1247	79.4	11.33	4.67	37.67	126.67	148.67	159.67	111.67	73.67	63.67	50.67	51.67	34.67	71.67	57.67	48.67	61.67	70.67	70.67	93.67	68.67	47.67	43.67	35.67	29.67	39.67	26.67	35.67
1279	81.469	15.33	-3.33	8.67	8.67	5.67	5.67	14.67	17.67	9.67	14.67	19.67	20.67	13.67	17.67	14.67	9.67	10.67	12.67	13.67	11.67	17.67	14.67	5.67	20.67	10.67	9.67	7.67
1311	83.542	15.33	4.67	4.67	17.67	8.67	12.67	22.67	31.67	17.67	22.67	19.67	8.67	22.67	14.67	21.67	9.67	20.67	10.67	14.67	19.67	20.67	10.67	14.67	12.67	18.67	21.67	13.67
1343	85.619	30.0	-3.0	-3.0	10.0	13.0	30.0	32.0	35.0	14.0	16.0	29.0	16.0	9.0	6.0	12.0	27.0	16.0	12.0	26.0	15.0	23.0	21.0	13.0	15.0	20.0	9.0	6.0
1375	87.7	29.0	2.0	-1.0	3.0	5.0	17.0	24.0	15.0	13.0	9.0	25.0	5.0	8.0	13.0	12.0	6.0	20.0	4.0	15.0	12.0	11.0	15.0	41.0	10.0	20.0	19.0	3.0
1407	89.786	22.67	1.33	4.33	7.33	10.33	14.33	7.33	8.33	9.33	12.33	12.33	28.33	8.33	7.33	15.33	6.33	15.33	8.33	6.33	13.33	13.33	4.33	1.33	17.33	16.33	15.33	8.33
1439	91.875	23.67	13.33	6.33	6.33	16.33	2.33	6.33	25.33	19.33	13.33	2.33	8.33	11.33	14.33	24.33	26.33	8.33	16.33	18.33	8.33	22.33	18.33	6.33	7.33	12.33	15.33	6.33
1471	93.97	33.67	-4.67	-5.67	18.33	6.33	3.33	0.33	6.33	13.33	9.33	-4.67	-1.67	-2.67	7.33	-0.67	0.33	5.33	4.33	1.33	4.33	7.33	-0.67	7.33	-0.67	2.33	-1.67	-6.67
1503	96.069	30.67	-7.67	13.33	-3.67	10.33	6.33	-6.67	16.33	19.33	4.33	7.33	10.33	12.33	14.33	6.33	8.33	13.33	4.33	7.33	6.33	2.33	5.33	8.33	9.33	10.33	9.33	9.33
1535	98.172	36.0	-1.0	-2.0	-3.0	3.0	5.0	11.0	21.0	4.0	5.0	10.0	3.0	7.0	-1.0	9.0	4.0	2.0	10.0	13.0	2.0	1.0	-2.0	-3.0	-4.0	10.0	3.0	-6.0
1567	100.281	27.0	9.0	2.0	20.0	21.0	17.0	14.0	12.0	6.0	14.0	22.0	20.0	10.0	9.0	22.0	13.0	20.0	18.0	15.0	11.0	15.0	24.0	7.0	14.0	4.0	1.0	18.0
1599	102.395	33.0	9.0	-11.0	15.0	-1.0	13.0	3.0	7.0	6.0	11.0	12.0	10.0	9.0	8.0	-1.0	0.0	12.0	10.0	-1.0	8.0	9.0	7.0	-1.0	4.0	4.0	4.0	12.0
1631	104.515	26.67	-0.67	-7.67	-0.67	-0.67	4.33	7.33	9.33	9.33	22.33	31.33	15.33	-3.67	5.33	11.33	15.33	-0.67	-1.67	6.33	13.33	21.33	14.33	5.33	14.33	7.33	13.33	14.33
1663	106.64	27.67	-2.67	3.33	7.33	-4.67	-0.67	5.33	5.33	-7.67	1.33	-6.67	3.33	0.33	4.33	7.33	6.33	4.33	2.33	-5.67	-0.67	-4.67	4.33	7.33	-8.67	3.33	2.33	8.33
1695	108.771	25.0	1.0	7.0	0.0	1.0	-1.0	7.0	0.0	2.0	1.0	3.0	10.0	4.0	4.0	3.0	1.0	3.0	7.0	-6.0	6.0	13.0	0.0	0.0	0.0	-1.0	8.0	11.0
1727	110.908	25.0	-4.0	-2.0	-3.0	1.0	-12.0	-6.0	8.0	-1.0	1.0	1.0	-4.0	-1.0	-1.0	-6.0	-4.0	4.0	-3.0	6.0	-2.0	-3.0	0.0	-4.0	1.0	-6.0	6.0	4.0
1759	113.051	20.0	1.0	7.0	7.0	5.0	7.0	2.0	0.0	0.0	3.0	6.0	3.0	9.0	11.0	-2.0	3.0	0.0	0.0	1.0	-2.0	-1.0	12.0	-3.0	2.0	1.0	1.0	4.0
1791	115.2	18.33	-0.33	-1.33	-1.33	1.67	7.67	9.67	4.67	4.67	2.67	12.67	6.67	3.67	5.67	1.67	5.67	5.67	2.67	-0.33	5.67	3.67	16.67	9.67	2.67	4.67	-1.33	15.67
1823	117.355	16.33	0.67	-7.33	-0.33	-0.33	-7.33	3.67	1.67	4.67	9.67	-0.33	-8.33	3.67	5.67	6.67	-3.33	10.67	4.67	1.67	-4.33	-7.33	0.67	9.67	-0.33	0.67	6.67	2.67
1855	119.518	11.33	3.67	-0.33	0.67	4.67	1.67	4.67	4.67	2.67	-3.33	7.67	3.67	3.67	10.67	9.67	11.67	1.67	5.67	2.67	5.67	3.67	4.67	2.67	9.67	13.67	5.67	2.67
1887	121.686	11.67	-0.67	-1.67	2.33	0.33	6.33	5.33	1.33	4.33	-2.67	10.33	3.33	-0.67	6.33	0.33	8.33	2.33	-1.67	5.33	0.33	1.33	10.33	9.33	2.33	2.33	5.33	-4.67
1919	123.862	10.33	-1.33	-1.33	6.67	0.67	-0.33	6.67	1.67	-6.33	0.67	0.67	6.67	0.67	0.67	4.67	3.67	5.67	7.67	2.67	12.67	4.67	8.67	-0.33	1.67	-0.33	6.67	0.67
1951	126.045	7.67	0.33	2.33	1.33	4.33	5.33	5.33	1.33	4.33	3.33	0.33	1.33	5.33	10.33	7.33	-0.67	5.33	3.33	2.33	3.33	2.33	4.33	6.33	6.33	-0.67	8.33	5.33
1983	128.235	9.67	-4.67	-2.67	-0.67	0.33	2.33	1.33	-0.67	5.33	2.33	8.33	-0.67	2.33	-0.67	-1.67	-0.67	-1.67	2.33	11.33	1.33	3.33	-2.67	3.33	-3.67	5.33	8.33	6.33
2015	130.433	11.33	-6.33	-0.33	-5.33	-1.33	-1.33	3.67	10.67	-5.33	2.67	1.67	0.67	-2.33	-3.33	-2.33	-0.33	-0.33	-2.33	-2.33	-1.33	0.67	-1.33	-2.33	1.67	2.67	-0.33	0.67
2047	132.638	7.0	0.0	-2.0	-1.0	4.0	0.0	0.0	5.0	1.0	5.0	1.0	1.0	1.0	0.0	8.0	2.0	-3.0	1.0	-3.0	2.0	0.0	1.0	0.0	3.0	1.0	-1.0	5.0