Folder: EDX-Concrete-Analysis/EDX Back Ups and Old Files/EDX Processed Data (part 2)

File: High pH BL 60C 4d.txt
Name: High pH BL 60C 4d
Number of Scans: 29
Positions: [-13.0, -12.75, -12.5, -12.25, -12.0, -11.75, -11.5, -11.25, -11.0, -10.75, -10.5, -10.25, -10.0, -9.75, -9.5, -9.25, -9.0, -8.75, -8.5, -8.25, -8.0, -7.75, -7.5, -7.25, -7.0, -6.75, -6.5, -6.25, -6.0]
Points per Scan: 2048
Sample Edge: 3
Scans Off Sample: [0, 1, 2]
Conversion Features: [(275, 17444.3), (309, 19608.3), (913, 57981.7), (934, 59318.24), (1058, 67244.3)]
Degree of Fit: 3
Fit Coeffecients: [ 8.59183e-07 -0.001482  64.3003 -144.207]
pH: High
Steel Fiber: False
Aging Temp.: 60
Aging Atm.: 100% CO2
Aging Humidity: None
Aging Time: 4

*********
#Bins	Energy [keV]	Avg. Background	-12.25	-12.0	-11.75	-11.5	-11.25	-11.0	-10.75	-10.5	-10.25	-10.0	-9.75	-9.5	-9.25	-9.0	-8.75	-8.5	-8.25	-8.0	-7.75	-7.5	-7.25	-7.0	-6.75	-6.5	-6.25	-6.0
31	1.848	15.0	-4.0	2.0	-1.0	-4.0	1.0	-2.0	-4.0	2.0	7.0	-2.0	-2.0	-5.0	6.0	-4.0	-1.0	0.0	0.0	-5.0	3.0	1.0	-3.0	4.0	6.0	1.0	0.0	2.0
63	3.901	0.0	0.0	0.0	0.0	0.0	0.0	1.0	1.0	1.0	0.0	3.0	1.0	1.0	1.0	0.0	1.0	1.0	0.0	0.0	2.0	0.0	0.0	0.0	0.0	1.0	0.0	2.0
95	5.952	1.0	1.0	0.0	-1.0	-1.0	3.0	-1.0	0.0	-1.0	1.0	-1.0	-1.0	1.0	0.0	1.0	1.0	0.0	0.0	1.0	0.0	0.0	0.0	-1.0	-1.0	-1.0	0.0	1.0
127	8.0	7.67	-3.67	0.33	0.33	-2.67	4.33	-5.67	-1.67	-0.67	-2.67	1.33	-0.67	-2.67	-3.67	-4.67	1.33	-3.67	-2.67	2.33	-1.67	-1.67	-3.67	-1.67	0.33	-3.67	0.33	-0.67
159	10.046	11.67	7.33	-4.67	0.33	-0.67	-1.67	-2.67	0.33	4.33	2.33	6.33	2.33	-4.67	5.33	1.33	-5.67	1.33	0.33	4.33	-1.67	8.33	2.33	3.33	-1.67	1.33	-3.67	1.33
191	12.089	9.67	5.33	7.33	1.33	3.33	3.33	-2.67	-1.67	-0.67	14.33	0.33	-2.67	-0.67	3.33	-0.67	9.33	-0.67	-1.67	1.33	-1.67	0.33	-1.67	0.33	4.33	3.33	3.33	4.33
223	14.131	6.67	7.33	6.33	3.33	2.33	8.33	4.33	3.33	5.33	7.33	3.33	4.33	8.33	3.33	2.33	5.33	5.33	6.33	6.33	13.33	5.33	1.33	6.33	4.33	8.33	8.33	1.33
255	16.17	10.33	-2.33	-1.33	-3.33	3.67	5.67	4.67	0.67	6.67	1.67	2.67	3.67	2.67	1.67	0.67	2.67	2.67	-2.33	-0.33	-0.33	1.67	10.67	-3.33	2.67	0.67	7.67	-0.33
287	18.208	11.67	-1.67	0.33	4.33	-1.67	-1.67	0.33	1.33	-1.67	-3.67	-0.67	8.33	-4.67	-0.67	-0.67	-5.67	1.33	5.33	0.33	-2.67	0.33	-2.67	2.33	2.33	3.33	7.33	-1.67
319	20.245	8.33	6.67	5.67	2.67	0.67	-0.33	-3.33	3.67	-3.33	-1.33	2.67	-1.33	3.67	6.67	1.67	5.67	4.67	3.67	0.67	-0.33	7.67	-0.33	0.67	6.67	1.67	-3.33	4.67
351	22.28	10.67	-4.67	-0.67	-7.67	-1.67	1.33	5.33	2.33	-0.67	-3.67	1.33	8.33	-0.67	3.33	-0.67	-4.67	-2.67	-1.67	0.33	-1.67	-5.67	-6.67	3.33	-2.67	-1.67	-1.67	0.33
383	24.314	9.33	-1.33	2.67	1.67	-2.33	-0.33	0.67	4.67	-0.33	-0.33	2.67	-3.33	-0.33	0.67	4.67	-0.33	-1.33	-1.33	0.67	1.67	3.67	-0.33	2.67	-0.33	0.67	-4.33	8.67
415	26.347	7.33	-3.33	-0.33	5.67	1.67	-3.33	-0.33	0.67	1.67	0.67	-4.33	-0.33	3.67	-4.33	2.67	4.67	0.67	0.67	1.67	3.67	3.67	8.67	-1.33	2.67	8.67	3.67	5.67
447	28.379	7.67	0.33	3.33	0.33	-2.67	2.33	1.33	1.33	0.33	-1.67	-1.67	3.33	2.33	-3.67	0.33	-1.67	-1.67	5.33	0.33	5.33	5.33	0.33	0.33	-2.67	-3.67	-2.67	0.33
479	30.41	5.33	-1.33	-0.33	-0.33	3.67	-1.33	0.67	3.67	1.67	1.67	0.67	-0.33	5.67	3.67	3.67	-3.33	-1.33	5.67	0.67	-1.33	0.67	2.67	2.67	-0.33	4.67	0.67	0.67
511	32.441	8.0	0.0	-2.0	-3.0	-3.0	-2.0	-1.0	-6.0	0.0	3.0	-4.0	-6.0	0.0	0.0	1.0	5.0	0.0	-4.0	-1.0	-3.0	-2.0	-2.0	4.0	-2.0	0.0	2.0	3.0
543	34.471	8.0	-4.0	-3.0	-2.0	-2.0	-2.0	-1.0	-1.0	-5.0	5.0	-4.0	-1.0	-2.0	-2.0	-5.0	-1.0	0.0	-4.0	2.0	-5.0	-5.0	-2.0	-6.0	-4.0	-2.0	-4.0	-4.0
575	36.502	4.33	2.67	4.67	0.67	-0.33	1.67	1.67	0.67	3.67	1.67	2.67	3.67	-0.33	-2.33	0.67	2.67	0.67	0.67	1.67	-0.33	3.67	0.67	3.67	-1.33	0.67	3.67	-2.33
607	38.532	8.0	2.0	-2.0	1.0	0.0	-1.0	-5.0	-7.0	-7.0	-3.0	4.0	-3.0	-4.0	-6.0	-3.0	-1.0	2.0	-2.0	5.0	-1.0	-1.0	-6.0	4.0	1.0	-1.0	-4.0	-3.0
639	40.563	8.67	1.33	-4.67	-2.67	2.33	-2.67	0.33	-2.67	-2.67	-3.67	-2.67	-1.67	1.33	-4.67	0.33	-5.67	-4.67	-2.67	1.33	-0.67	-5.67	0.33	2.33	-1.67	0.33	-0.67	-4.67
671	42.594	9.33	-5.33	-6.33	-3.33	-4.33	-8.33	-4.33	-4.33	-1.33	-1.33	-2.33	0.67	-3.33	-2.33	-4.33	-5.33	-2.33	-5.33	-2.33	0.67	-0.33	-3.33	-1.33	-1.33	-4.33	0.67	-3.33
703	44.625	9.67	-4.67	0.33	-2.67	-1.67	-2.67	-5.67	2.33	-5.67	-1.67	-4.67	-2.67	-3.67	-6.67	-1.67	-3.67	6.33	-0.67	-4.67	-3.67	-4.67	-7.67	-0.67	-4.67	3.33	2.33	-6.67
735	46.657	15.33	-0.33	-9.33	-11.33	-8.33	-10.33	-10.33	-6.33	-6.33	-7.33	-7.33	-2.33	-6.33	-8.33	-8.33	-8.33	-2.33	-4.33	-12.33	-10.33	-7.33	-7.33	-9.33	-9.33	-9.33	-6.33	-7.33
767	48.69	13.67	-7.67	-3.67	-1.67	-8.67	-8.67	-7.67	-5.67	-6.67	-4.67	-4.67	-4.67	-2.67	-2.67	-7.67	-8.67	-3.67	-4.67	-5.67	-5.67	-0.67	-3.67	-5.67	-7.67	-7.67	-8.67	-2.67
799	50.724	14.33	-3.33	-3.33	0.67	-4.33	1.67	-0.33	-1.33	0.67	1.67	7.67	2.67	2.67	9.67	5.67	2.67	2.67	6.67	2.67	3.67	-1.33	4.67	-1.33	3.67	2.67	3.67	-1.33
831	52.759	14.33	-4.33	-3.33	-0.33	-5.33	3.67	2.67	2.67	6.67	2.67	2.67	3.67	-5.33	-1.33	-1.33	-6.33	-3.33	0.67	8.67	-0.33	-5.33	-3.33	-3.33	4.67	5.67	4.67	2.67
863	54.795	18.0	-2.0	-3.0	-14.0	-6.0	-1.0	-13.0	-7.0	0.0	-6.0	-6.0	-3.0	-5.0	-7.0	-7.0	-11.0	-10.0	0.0	-6.0	-6.0	-4.0	-1.0	0.0	-7.0	-4.0	-5.0	-3.0
895	56.833	14.33	-4.33	-4.33	-2.33	3.67	-7.33	-2.33	-3.33	4.67	-2.33	4.67	-3.33	-2.33	-1.33	-9.33	0.67	-0.33	-1.33	0.67	-0.33	-8.33	7.67	-7.33	-7.33	-8.33	0.67	-2.33
927	58.873	19.33	-3.33	8.67	-5.33	-6.33	-4.33	-5.33	-4.33	1.67	-1.33	-1.33	2.67	-5.33	-0.33	1.67	-5.33	-8.33	-1.33	-6.33	-7.33	3.67	-5.33	0.67	-4.33	3.67	-2.33	-5.33
959	60.915	24.0	-11.0	-15.0	-13.0	-12.0	-13.0	-8.0	-9.0	-11.0	-16.0	-17.0	-4.0	-1.0	-11.0	-10.0	-15.0	-10.0	-14.0	-4.0	-13.0	-8.0	-14.0	-10.0	-9.0	-13.0	-12.0	-13.0
991	62.958	18.0	-4.0	-7.0	-1.0	-6.0	-6.0	-4.0	-3.0	3.0	-6.0	-2.0	5.0	-2.0	-5.0	-11.0	2.0	-4.0	5.0	-5.0	3.0	-9.0	4.0	-7.0	-1.0	2.0	-4.0	4.0
1023	65.004	18.67	-5.67	12.33	2.33	10.33	12.33	12.33	8.33	1.33	1.33	-0.67	5.33	6.33	-0.67	1.33	6.33	-1.67	-2.67	0.33	5.33	-1.67	5.33	-5.67	-0.67	3.33	-2.67	5.33
1055	67.052	20.67	-1.67	-1.67	8.33	-2.67	3.33	-1.67	6.33	2.33	7.33	7.33	-7.67	-2.67	-0.67	4.33	0.33	-8.67	-0.67	1.33	-2.67	-2.67	-3.67	-4.67	0.33	4.33	0.33	5.33
1087	69.103	15.33	-5.33	5.67	9.67	2.67	2.67	2.67	-4.33	2.67	8.67	-1.33	3.67	-0.33	3.67	2.67	5.67	17.67	4.67	-3.33	1.67	4.67	4.67	4.67	10.67	8.67	-1.33	-1.33
1119	71.156	13.33	-3.33	-6.33	2.67	2.67	0.67	11.67	3.67	8.67	5.67	-0.33	-6.33	7.67	0.67	4.67	-4.33	5.67	-2.33	0.67	0.67	-1.33	0.67	5.67	1.67	6.67	0.67	4.67
1151	73.212	28.33	0.67	4.67	11.67	7.67	-0.33	5.67	-5.33	6.67	-4.33	-0.33	7.67	5.67	15.67	-1.33	1.67	-7.33	8.67	4.67	-3.33	2.67	2.67	3.67	10.67	-6.33	1.67	9.67
1183	75.272	46.67	-9.67	1.33	3.33	-12.67	-4.67	-2.67	-4.67	12.33	8.33	-8.67	5.33	2.33	0.33	9.33	11.33	11.33	-5.67	-3.67	15.33	3.33	7.33	12.33	-0.67	-10.67	4.33	-3.67
1215	77.334	11.33	4.67	11.67	7.67	8.67	14.67	10.67	5.67	1.67	0.67	2.67	9.67	7.67	1.67	12.67	7.67	4.67	10.67	6.67	12.67	8.67	12.67	6.67	8.67	4.67	7.67	14.67
1247	79.4	19.33	-1.33	-6.33	2.67	5.67	4.67	2.67	-6.33	7.67	4.67	-3.33	-6.33	10.67	-6.33	3.67	0.67	3.67	-1.33	3.67	-3.33	1.67	-1.33	5.67	-4.33	4.67	1.67	1.67
1279	81.469	21.33	-1.33	10.67	-0.33	5.67	4.67	3.67	17.67	4.67	14.67	20.67	13.67	6.67	13.67	1.67	6.67	16.67	7.67	17.67	11.67	27.67	17.67	11.67	3.67	13.67	19.67	6.67
1311	83.542	17.0	121.0	212.0	217.0	174.0	140.0	135.0	138.0	112.0	118.0	123.0	116.0	101.0	94.0	101.0	78.0	88.0	81.0	78.0	62.0	69.0	71.0	78.0	79.0	77.0	74.0	80.0
1343	85.619	35.67	-3.67	-2.67	9.33	0.33	9.33	8.33	4.33	8.33	-8.67	-0.67	-1.67	0.33	1.33	0.33	8.33	4.33	2.33	-0.67	18.33	-0.67	3.33	3.33	0.33	-0.67	4.33	12.33
1375	87.7	27.33	1.67	6.67	0.67	5.67	15.67	6.67	0.67	-0.33	-0.33	-0.33	-1.33	10.67	5.67	6.67	0.67	-0.33	6.67	15.67	2.67	1.67	-1.33	10.67	-3.33	6.67	5.67	9.67
1407	89.786	22.0	7.0	12.0	2.0	8.0	10.0	2.0	3.0	12.0	2.0	1.0	16.0	14.0	12.0	12.0	0.0	9.0	6.0	6.0	16.0	6.0	1.0	5.0	9.0	0.0	7.0	-2.0
1439	91.875	23.33	-4.33	3.67	22.67	10.67	7.67	18.67	12.67	2.67	6.67	5.67	3.67	26.67	13.67	16.67	8.67	9.67	3.67	12.67	10.67	21.67	3.67	14.67	10.67	13.67	5.67	8.67
1471	93.97	25.0	5.0	5.0	9.0	10.0	11.0	2.0	1.0	10.0	5.0	6.0	9.0	7.0	4.0	7.0	6.0	-5.0	8.0	18.0	21.0	5.0	13.0	9.0	17.0	7.0	6.0	8.0
1503	96.069	32.67	6.33	-1.67	4.33	-1.67	-4.67	5.33	0.33	7.33	5.33	4.33	11.33	10.33	2.33	2.33	13.33	12.33	3.33	8.33	10.33	4.33	23.33	19.33	32.33	8.33	8.33	5.33
1535	98.172	33.0	0.0	1.0	-4.0	5.0	11.0	10.0	8.0	18.0	22.0	20.0	31.0	15.0	34.0	22.0	15.0	10.0	13.0	15.0	26.0	19.0	6.0	22.0	11.0	19.0	17.0	20.0
1567	100.281	32.0	-6.0	1.0	-7.0	6.0	4.0	-6.0	13.0	-5.0	4.0	0.0	2.0	4.0	11.0	7.0	7.0	-7.0	1.0	9.0	-2.0	0.0	4.0	14.0	11.0	1.0	2.0	8.0
1599	102.395	35.67	-14.67	1.33	8.33	2.33	23.33	4.33	-7.67	9.33	-12.67	-3.67	-2.67	1.33	1.33	4.33	-11.67	4.33	4.33	-0.67	-4.67	10.33	-3.67	-2.67	1.33	-11.67	-2.67	-5.67
1631	104.515	27.33	-5.33	5.67	0.67	2.67	9.67	-6.33	6.67	8.67	10.67	8.67	3.67	-0.33	4.67	1.67	2.67	-5.33	-4.33	7.67	-2.33	-0.33	3.67	0.67	4.67	-0.33	1.67	9.67
1663	106.64	28.33	2.67	-12.33	-5.33	-1.33	-0.33	-1.33	-0.33	-7.33	-2.33	-2.33	-7.33	7.67	6.67	2.67	-6.33	-3.33	-8.33	-7.33	3.67	-0.33	-0.33	1.67	-2.33	11.67	-5.33	6.67
1695	108.771	26.33	-5.33	-2.33	-3.33	-4.33	6.67	-8.33	4.67	-5.33	-0.33	-2.33	-0.33	7.67	-2.33	14.67	-4.33	-10.33	-4.33	-7.33	-2.33	-0.33	-5.33	-6.33	-4.33	3.67	-1.33	-0.33
1727	110.908	21.0	2.0	7.0	1.0	13.0	-5.0	9.0	4.0	5.0	-10.0	3.0	4.0	5.0	1.0	1.0	2.0	-3.0	7.0	13.0	7.0	10.0	12.0	8.0	-1.0	4.0	6.0	-1.0
1759	113.051	14.33	4.67	8.67	16.67	13.67	9.67	15.67	7.67	5.67	10.67	13.67	6.67	14.67	-1.33	16.67	9.67	18.67	6.67	4.67	10.67	8.67	4.67	13.67	7.67	8.67	8.67	10.67
1791	115.2	16.33	-3.33	-1.33	7.67	1.67	-1.33	1.67	5.67	-3.33	1.67	12.67	1.67	4.67	7.67	5.67	3.67	2.67	4.67	4.67	6.67	-1.33	6.67	0.67	2.67	1.67	1.67	-2.33
1823	117.355	12.33	3.67	-1.33	0.67	17.67	-1.33	-1.33	1.67	7.67	5.67	5.67	4.67	-0.33	-3.33	6.67	4.67	2.67	0.67	-0.33	2.67	5.67	1.67	-0.33	9.67	-3.33	0.67	10.67
1855	119.518	14.33	1.67	-2.33	0.67	0.67	9.67	0.67	5.67	-3.33	-1.33	-5.33	-2.33	3.67	5.67	1.67	7.67	3.67	9.67	2.67	-0.33	3.67	-0.33	0.67	2.67	4.67	2.67	-0.33
1887	121.686	15.0	2.0	6.0	-8.0	-7.0	-3.0	0.0	0.0	2.0	0.0	-2.0	-1.0	2.0	-2.0	-4.0	-1.0	0.0	3.0	-6.0	2.0	1.0	-4.0	-5.0	-1.0	2.0	2.0	2.0
1919	123.862	11.33	2.67	-0.33	-4.33	8.67	6.67	3.67	1.67	5.67	5.67	-1.33	9.67	0.67	6.67	6.67	-0.33	4.67	3.67	-0.33	3.67	5.67	2.67	-0.33	1.67	-3.33	-1.33	7.67
1951	126.045	10.33	2.67	2.67	-1.33	2.67	5.67	-3.33	-0.33	0.67	-1.33	-1.33	5.67	3.67	-1.33	-0.33	0.67	4.67	1.67	-0.33	11.67	1.67	4.67	-0.33	3.67	-2.33	-2.33	4.67
1983	128.235	7.33	-1.33	-0.33	4.67	-0.33	1.67	2.67	0.67	4.67	4.67	7.67	1.67	3.67	1.67	1.67	1.67	5.67	-0.33	0.67	5.67	2.67	3.67	3.67	0.67	4.67	-0.33	7.67
2015	130.433	12.67	-5.67	-2.67	-0.67	-2.67	-4.67	-3.67	-1.67	-4.67	-7.67	-6.67	-3.67	-3.67	-0.67	-2.67	-0.67	-2.67	-0.67	-3.67	-0.67	-1.67	-1.67	-4.67	-2.67	0.33	-5.67	-0.67
2047	132.638	9.67	-0.67	2.33	-0.67	1.33	-1.67	-0.67	-0.67	-2.67	6.33	-1.67	-3.67	1.33	1.33	-0.67	1.33	1.33	-1.67	-2.67	-2.67	-3.67	1.33	0.33	-2.67	-4.67	4.33	-3.67

File: High pH BL 60C 6d.txt
Name: High pH BL 60C 6d
Number of Scans: 29
Positions: [-13.0, -12.75, -12.5, -12.25, -12.0, -11.75, -11.5, -11.25, -11.0, -10.75, -10.5, -10.25, -10.0, -9.75, -9.5, -9.25, -9.0, -8.75, -8.5, -8.25, -8.0, -7.75, -7.5, -7.25, -7.0, -6.75, -6.5, -6.25, -6.0]
Points per Scan: 2048
Sample Edge: 3
Scans Off Sample: [0, 1, 2]
Conversion Features: [(275, 17444.3), (309, 19608.3), (913, 57981.7), (934, 59318.24), (1058, 67244.3)]
Degree of Fit: 3
Fit Coeffecients: [ 8.59183e-07 -0.001482  64.3003 -144.207]
pH: High
Steel Fiber: False
Aging Temp.: 60
Aging Atm.: 100% CO2
Aging Humidity: None
Aging Time: 6

*********
#Bins	Energy [keV]	Avg. Background	-12.25	-12.0	-11.75	-11.5	-11.25	-11.0	-10.75	-10.5	-10.25	-10.0	-9.75	-9.5	-9.25	-9.0	-8.75	-8.5	-8.25	-8.0	-7.75	-7.5	-7.25	-7.0	-6.75	-6.5	-6.25	-6.0
30	1.783	21.0	15.0	8.0	-2.0	1.0	1.0	-2.0	-1.0	4.0	2.0	0.0	0.0	1.0	2.0	5.0	1.0	-5.0	-5.0	3.0	6.0	5.0	-4.0	4.0	8.0	-8.0	2.0	-2.0
61	3.773	0.0	1.0	0.0	0.0	0.0	1.0	0.0	1.0	0.0	0.0	0.0	1.0	0.0	0.0	0.0	0.0	0.0	0.0	0.0	2.0	0.0	1.0	1.0	1.0	1.0	0.0	0.0
92	5.76	0.0	0.0	1.0	0.0	2.0	2.0	2.0	0.0	0.0	0.0	0.0	0.0	0.0	1.0	1.0	1.0	0.0	0.0	0.0	3.0	2.0	1.0	0.0	0.0	0.0	0.0	1.0
123	7.744	4.33	-1.33	-1.33	0.67	-4.33	-0.33	-2.33	-2.33	-2.33	2.67	3.67	2.67	-0.33	2.67	1.67	-1.33	-0.33	0.67	-1.33	-1.33	3.67	-1.33	0.67	2.67	0.67	2.67	3.67
154	9.726	13.33	-1.33	-5.33	-3.33	1.67	-3.33	-4.33	-7.33	-3.33	-4.33	-7.33	3.67	0.67	1.67	-0.33	2.67	-2.33	-3.33	-7.33	-3.33	1.67	-1.33	-3.33	0.67	2.67	0.67	1.67
185	11.706	10.67	3.33	-0.67	-1.67	5.33	5.33	-4.67	1.33	1.33	-0.67	-1.67	1.33	1.33	5.33	4.33	1.33	7.33	0.33	-4.67	1.33	5.33	4.33	-5.67	5.33	2.33	-3.67	-2.67
216	13.684	8.67	5.33	-0.67	-0.67	1.33	1.33	4.33	5.33	7.33	3.33	2.33	-0.67	2.33	5.33	3.33	1.33	2.33	-0.67	3.33	8.33	6.33	0.33	-0.67	5.33	5.33	3.33	2.33
247	15.661	11.33	-3.33	-3.33	1.67	0.67	-2.33	-0.33	8.67	-0.33	1.67	-2.33	-0.33	2.67	1.67	8.67	5.67	1.67	2.67	1.67	4.67	-3.33	3.67	-2.33	4.67	4.67	2.67	1.67
278	17.635	9.0	6.0	4.0	4.0	-2.0	3.0	1.0	2.0	8.0	-3.0	11.0	5.0	3.0	2.0	3.0	10.0	2.0	6.0	2.0	3.0	-1.0	4.0	1.0	7.0	2.0	7.0	2.0
309	19.608	9.0	1.0	-1.0	2.0	2.0	3.0	4.0	3.0	7.0	-1.0	0.0	2.0	7.0	3.0	-1.0	3.0	-1.0	3.0	7.0	2.0	2.0	3.0	4.0	4.0	4.0	9.0	5.0
340	21.58	13.0	-2.0	-3.0	-3.0	-6.0	-2.0	-2.0	-2.0	-1.0	0.0	5.0	-8.0	2.0	-6.0	0.0	-3.0	1.0	-7.0	1.0	1.0	0.0	-6.0	-3.0	-5.0	-5.0	1.0	-1.0
371	23.551	8.33	-0.33	-1.33	2.67	5.67	5.67	-1.33	3.67	3.67	3.67	0.67	-0.33	0.67	5.67	-1.33	5.67	-1.33	1.67	4.67	1.67	-0.33	-2.33	-4.33	5.67	3.67	0.67	2.67
402	25.521	10.0	-6.0	3.0	-6.0	-5.0	-5.0	-1.0	-3.0	0.0	1.0	6.0	-4.0	1.0	0.0	1.0	0.0	-2.0	0.0	-4.0	4.0	2.0	4.0	-6.0	-1.0	3.0	-2.0	-1.0
433	27.49	9.0	-1.0	-4.0	0.0	-2.0	3.0	-5.0	-1.0	-2.0	2.0	-3.0	-3.0	0.0	-4.0	-2.0	0.0	-3.0	2.0	-3.0	0.0	0.0	-4.0	-1.0	-3.0	-1.0	4.0	1.0
464	29.458	6.67	3.33	0.33	0.33	-3.67	2.33	-2.67	-2.67	0.33	-1.67	1.33	0.33	-1.67	1.33	1.33	3.33	-0.67	-1.67	-2.67	3.33	0.33	-1.67	2.33	5.33	1.33	-0.67	2.33
495	31.426	5.33	0.67	3.67	-0.33	2.67	2.67	0.67	12.67	-0.33	4.67	4.67	0.67	1.67	1.67	5.67	6.67	5.67	4.67	-1.33	1.67	-1.33	4.67	1.67	-1.33	5.67	2.67	2.67
526	33.393	5.33	0.67	1.67	-4.33	1.67	-0.33	-1.33	0.67	-0.33	2.67	-1.33	5.67	0.67	3.67	3.67	0.67	1.67	0.67	-0.33	4.67	1.67	-0.33	1.67	-2.33	0.67	-2.33	3.67
557	35.36	2.33	3.67	3.67	4.67	2.67	1.67	5.67	3.67	1.67	1.67	2.67	2.67	1.67	1.67	5.67	3.67	1.67	5.67	2.67	4.67	1.67	5.67	5.67	7.67	0.67	3.67	1.67
588	37.327	3.67	1.33	4.33	0.33	4.33	4.33	2.33	1.33	3.33	-1.67	0.33	1.33	2.33	2.33	3.33	-1.67	-0.67	6.33	-1.67	0.33	1.33	1.33	3.33	2.33	1.33	0.33	-1.67
619	39.294	6.0	-1.0	1.0	1.0	-3.0	-1.0	-3.0	0.0	-2.0	3.0	-2.0	2.0	-1.0	-3.0	-2.0	0.0	0.0	2.0	4.0	-2.0	3.0	-2.0	7.0	1.0	2.0	-1.0	-1.0
650	41.261	4.33	1.67	-0.33	3.67	0.67	4.67	0.67	-0.33	-0.33	5.67	-0.33	3.67	4.67	3.67	-0.33	-2.33	1.67	5.67	1.67	4.67	-3.33	-0.33	-2.33	-1.33	0.67	0.67	-3.33
681	43.228	3.67	-1.67	0.33	3.33	6.33	1.33	1.33	0.33	3.33	3.33	0.33	0.33	0.33	0.33	4.33	1.33	-1.67	1.33	4.33	2.33	1.33	1.33	4.33	3.33	0.33	4.33	3.33
712	45.196	6.0	-1.0	6.0	4.0	-2.0	-1.0	0.0	2.0	2.0	0.0	1.0	4.0	1.0	2.0	6.0	6.0	0.0	3.0	0.0	3.0	5.0	2.0	0.0	-1.0	-4.0	4.0	4.0
743	47.165	9.67	-3.67	-2.67	-3.67	7.33	-1.67	-4.67	0.33	4.33	-1.67	-1.67	-4.67	-1.67	-3.67	-3.67	0.33	-1.67	-5.67	-1.67	-0.67	0.33	-3.67	-2.67	-5.67	-4.67	-4.67	-0.67
774	49.135	6.0	1.0	4.0	8.0	2.0	6.0	1.0	6.0	5.0	2.0	2.0	0.0	3.0	5.0	5.0	7.0	3.0	8.0	1.0	1.0	4.0	1.0	5.0	8.0	8.0	3.0	1.0
805	51.105	8.67	-1.67	-0.67	2.33	0.33	-3.67	1.33	5.33	0.33	-2.67	5.33	3.33	10.33	12.33	14.33	31.33	22.33	24.33	29.33	10.33	27.33	16.33	25.33	27.33	9.33	17.33	20.33
836	53.077	8.33	1.67	1.67	4.67	-0.33	8.67	2.67	4.67	2.67	-3.33	1.67	6.67	3.67	2.67	7.67	8.67	7.67	7.67	1.67	5.67	3.67	6.67	8.67	2.67	6.67	6.67	7.67
867	55.05	8.67	4.33	6.33	3.33	2.33	3.33	1.33	-0.67	0.33	4.33	3.33	-1.67	3.33	1.33	4.33	2.33	-1.67	-0.67	7.33	-1.67	5.33	2.33	8.33	-1.67	4.33	6.33	2.33
898	57.025	8.67	-0.67	4.33	-2.67	2.33	8.33	0.33	5.33	3.33	0.33	10.33	2.33	2.33	5.33	8.33	9.33	8.33	6.33	6.33	3.33	2.33	2.33	11.33	7.33	9.33	3.33	1.33
929	59.001	11.33	3.67	1.67	4.67	7.67	8.67	5.67	3.67	8.67	6.67	8.67	7.67	-0.33	7.67	1.67	-2.33	6.67	5.67	0.67	5.67	2.67	3.67	7.67	2.67	-1.33	3.67	0.67
960	60.978	9.33	-5.33	0.67	-2.33	4.67	6.67	17.67	7.67	0.67	3.67	6.67	7.67	1.67	5.67	6.67	-0.33	4.67	2.67	3.67	3.67	2.67	0.67	4.67	0.67	11.67	1.67	2.67
991	62.958	8.67	2.33	8.33	3.33	13.33	4.33	5.33	-1.67	7.33	5.33	7.33	4.33	7.33	6.33	4.33	2.33	2.33	-1.67	2.33	9.33	5.33	3.33	8.33	1.33	4.33	4.33	7.33
1022	64.94	10.0	6.0	20.0	18.0	18.0	18.0	23.0	17.0	19.0	13.0	11.0	22.0	12.0	12.0	12.0	12.0	1.0	2.0	10.0	10.0	8.0	2.0	15.0	13.0	7.0	6.0	17.0
1053	66.924	14.67	-0.67	11.33	2.33	5.33	8.33	5.33	8.33	-1.67	11.33	13.33	12.33	3.33	7.33	16.33	7.33	2.33	4.33	-1.67	6.33	2.33	10.33	8.33	6.33	10.33	5.33	7.33
1084	68.91	11.0	-2.0	1.0	7.0	10.0	1.0	7.0	0.0	-1.0	9.0	-3.0	10.0	7.0	7.0	5.0	5.0	2.0	9.0	7.0	4.0	2.0	10.0	7.0	3.0	7.0	11.0	9.0
1115	70.899	9.0	3.0	3.0	12.0	3.0	5.0	4.0	4.0	10.0	6.0	3.0	3.0	11.0	9.0	10.0	16.0	14.0	10.0	6.0	-1.0	5.0	11.0	8.0	7.0	6.0	4.0	4.0
1146	72.891	24.0	5.0	5.0	0.0	5.0	6.0	2.0	-1.0	2.0	7.0	6.0	1.0	3.0	10.0	3.0	17.0	8.0	8.0	7.0	2.0	-1.0	-4.0	5.0	9.0	9.0	12.0	14.0
1177	74.885	33.33	-6.33	-6.33	0.67	17.67	-2.33	-1.33	-1.33	2.67	1.67	-3.33	2.67	-5.33	3.67	1.67	-0.33	-0.33	-0.33	11.67	8.67	5.67	12.67	-1.33	3.67	-5.33	6.67	5.67
1208	76.883	7.0	5.0	12.0	16.0	13.0	12.0	13.0	18.0	12.0	5.0	12.0	9.0	11.0	8.0	13.0	7.0	7.0	12.0	12.0	13.0	5.0	17.0	9.0	18.0	5.0	16.0	9.0
1239	78.883	13.67	-6.67	9.33	11.33	2.33	9.33	8.33	3.33	5.33	6.33	4.33	7.33	9.33	9.33	7.33	6.33	9.33	3.33	21.33	4.33	2.33	-0.67	7.33	12.33	7.33	1.33	7.33
1270	80.887	13.0	1.0	8.0	15.0	3.0	10.0	4.0	6.0	3.0	7.0	1.0	10.0	8.0	16.0	11.0	15.0	8.0	11.0	20.0	17.0	7.0	3.0	15.0	5.0	8.0	11.0	21.0
1301	82.894	17.33	37.67	134.67	117.67	99.67	100.67	92.67	105.67	100.67	88.67	88.67	70.67	63.67	55.67	60.67	55.67	52.67	48.67	35.67	32.67	63.67	48.67	28.67	47.67	34.67	27.67	45.67
1332	84.905	29.0	29.0	83.0	88.0	83.0	64.0	64.0	73.0	61.0	46.0	54.0	75.0	42.0	47.0	48.0	23.0	46.0	29.0	36.0	29.0	25.0	48.0	39.0	27.0	38.0	40.0	34.0
1363	86.92	19.33	10.67	5.67	4.67	12.67	5.67	17.67	17.67	7.67	3.67	13.67	2.67	14.67	13.67	10.67	11.67	7.67	2.67	15.67	17.67	0.67	9.67	3.67	2.67	12.67	14.67	10.67
1394	88.938	21.0	-2.0	-1.0	9.0	-1.0	10.0	14.0	3.0	18.0	8.0	9.0	6.0	10.0	6.0	6.0	-7.0	9.0	4.0	2.0	4.0	8.0	4.0	4.0	7.0	16.0	-3.0	-4.0
1425	90.961	23.67	-1.67	2.33	10.33	14.33	18.33	11.33	-2.67	-4.67	12.33	8.33	4.33	11.33	13.33	10.33	9.33	3.33	2.33	15.33	19.33	5.33	9.33	-0.67	6.33	11.33	11.33	-0.67
1456	92.987	18.33	4.67	15.67	17.67	11.67	11.67	21.67	2.67	12.67	2.67	13.67	8.67	15.67	16.67	20.67	12.67	16.67	17.67	15.67	18.67	6.67	13.67	15.67	17.67	16.67	14.67	20.67
1487	95.018	30.67	-10.67	3.33	12.33	10.33	4.33	-1.67	-2.67	-2.67	6.33	0.33	7.33	-0.67	-5.67	-2.67	2.33	2.33	-4.67	9.33	-0.67	7.33	9.33	5.33	-6.67	-3.67	2.33	8.33
1518	97.054	30.33	1.67	2.67	8.67	1.67	-1.33	1.67	12.67	-0.33	-0.33	4.67	2.67	9.67	21.67	12.67	31.67	12.67	34.67	24.67	36.67	24.67	23.67	13.67	31.67	21.67	29.67	18.67
1549	99.094	25.0	10.0	15.0	12.0	9.0	9.0	18.0	11.0	18.0	7.0	3.0	3.0	16.0	21.0	10.0	5.0	-1.0	6.0	9.0	9.0	-4.0	7.0	8.0	9.0	12.0	15.0	12.0
1580	101.14	30.33	-2.33	7.67	3.67	8.67	13.67	2.67	1.67	1.67	11.67	3.67	4.67	1.67	7.67	-4.33	-0.33	0.67	6.67	-0.33	2.67	5.67	10.67	-0.33	2.67	-5.33	11.67	5.67
1611	103.19	27.33	-8.33	8.67	21.67	13.67	15.67	6.67	4.67	8.67	-1.33	7.67	6.67	2.67	9.67	3.67	3.67	6.67	4.67	14.67	14.67	11.67	17.67	20.67	7.67	3.67	-0.33	12.67
1642	105.245	22.33	-0.33	1.67	13.67	8.67	1.67	11.67	14.67	9.67	3.67	6.67	8.67	10.67	4.67	4.67	12.67	9.67	8.67	10.67	-1.33	3.67	4.67	5.67	6.67	7.67	8.67	7.67
1673	107.305	24.67	-1.67	-1.67	3.33	-4.67	-5.67	-0.67	3.33	1.33	8.33	6.33	4.33	1.33	6.33	2.33	16.33	-0.67	5.33	3.33	-1.67	4.33	2.33	6.33	1.33	2.33	-1.67	1.33
1704	109.371	19.33	1.67	4.67	0.67	4.67	9.67	6.67	-2.33	14.67	7.67	0.67	7.67	10.67	2.67	13.67	14.67	4.67	8.67	2.67	1.67	4.67	3.67	2.67	4.67	0.67	7.67	3.67
1735	111.443	18.0	-3.0	5.0	15.0	10.0	3.0	8.0	11.0	13.0	3.0	7.0	30.0	8.0	16.0	7.0	6.0	10.0	18.0	10.0	21.0	8.0	5.0	8.0	0.0	7.0	8.0	10.0
1766	113.52	23.0	-2.0	-4.0	-6.0	-1.0	1.0	1.0	-10.0	-5.0	4.0	0.0	1.0	0.0	3.0	-4.0	-6.0	-4.0	-9.0	2.0	1.0	0.0	7.0	2.0	2.0	2.0	-6.0	-3.0
1797	115.604	16.0	2.0	-1.0	-3.0	2.0	2.0	-3.0	11.0	5.0	1.0	-4.0	-3.0	3.0	5.0	6.0	-2.0	3.0	2.0	-6.0	8.0	-6.0	3.0	0.0	4.0	4.0	2.0	-2.0
1828	117.693	15.0	1.0	-5.0	0.0	10.0	6.0	5.0	5.0	1.0	-2.0	5.0	-5.0	4.0	3.0	5.0	0.0	3.0	0.0	2.0	-6.0	7.0	-3.0	-1.0	0.0	3.0	2.0	1.0
1859	119.788	13.67	-5.67	-0.67	-3.67	-5.67	1.33	-1.67	4.33	-6.67	-2.67	4.33	2.33	-4.67	1.33	0.33	3.33	0.33	0.33	0.33	15.33	0.33	0.33	6.33	-6.67	0.33	-0.67	2.33
1890	121.89	13.0	-3.0	-3.0	1.0	9.0	4.0	6.0	6.0	5.0	5.0	-2.0	2.0	-2.0	3.0	4.0	0.0	-3.0	2.0	-1.0	2.0	0.0	-6.0	0.0	3.0	0.0	2.0	3.0
1921	123.999	12.0	7.0	3.0	3.0	0.0	0.0	-4.0	1.0	1.0	-3.0	1.0	-1.0	3.0	4.0	8.0	3.0	2.0	4.0	-3.0	-5.0	5.0	1.0	5.0	-6.0	-2.0	2.0	-2.0
1952	126.114	12.67	-8.67	-0.67	-8.67	3.33	3.33	-4.67	-1.67	-4.67	-0.67	-2.67	-3.67	0.33	-2.67	-1.67	0.33	-2.67	0.33	0.33	1.33	-2.67	-2.67	-1.67	1.33	1.33	1.33	-0.67
1983	128.235	7.0	4.0	5.0	1.0	3.0	2.0	2.0	-1.0	5.0	6.0	-1.0	7.0	-1.0	5.0	5.0	8.0	0.0	4.0	3.0	4.0	4.0	2.0	6.0	1.0	2.0	7.0	6.0
2014	130.364	10.0	-6.0	4.0	-3.0	-4.0	-4.0	3.0	0.0	-3.0	-3.0	-1.0	6.0	-1.0	-1.0	-1.0	5.0	0.0	-2.0	-5.0	-6.0	-3.0	-4.0	-2.0	1.0	-5.0	3.0	1.0
2045	132.5	6.33	0.67	4.67	12.67	-2.33	3.67	1.67	1.67	2.67	4.67	1.67	0.67	1.67	6.67	-0.33	4.67	2.67	2.67	7.67	1.67	1.67	6.67	3.67	-0.33	4.67	0.67	1.67
2047	132.638	11.67	-6.67	-7.67	-2.67	-3.67	-2.67	-2.67	1.33	-4.67	-1.67	-1.67	-3.67	-4.67	-3.67	-5.67	-0.67	-5.67	-8.67	-4.67	-4.67	-4.67	-3.67	-5.67	0.33	0.33	-6.67	-1.67