Folder: EDX-Concrete-Analysis/EDX Back Ups and Old Files/Spectra copy 3.3.23/Samples/High pH BL 25C 14d

Note: README.md
This is Anthony's repository for doing all sorts of Energy Dispersive X-ray Analysis on concrete samples.

File: 8.5.txt
0.0
9.33
3.33
-8.0
-9.0
-3.33
3.0
0.0
0.0
-0.33
0.0
-0.33
-0.33
0.33
1.0
2.0
-0.67
1.33
2.0
2.33
-0.33
5.0
-2.33
-1.33
2.0
4.33
-0.33
1.33
-0.33
4.67
0.67
1.33
7.0
0.0
5.67
3.33
8.67
3.33
0.33
-4.33
0.33
3.33
7.0
-0.67
-1.67
-1.33
4.67
4.33
4.67
3.67
-3.0
-2.67
6.67
0.0
0.67
3.33
1.0
4.0
2.33
3.33
4.33
2.0
-1.67
2.67
-0.67
0.33
0.0
-0.67
-1.67
7.0
5.0
2.67
0.33
0.67
8.0
-2.67
7.67
0.33
-1.33
-5.0
0.67
1.67
0.0
2.0
1.33
2.67
0.67
-2.33
0.0
1.33
-1.33
3.0
-2.0
-1.33
-1.33
2.67
-6.67
-2.67
1.33
-3.33
2.67
-0.33
-9.33
-2.0
-2.33
-5.33
-0.33
2.0
-3.67
5.0
-5.0
5.67
8.67
8.67
6.33
17.0
37.67
21.67
7.0
1.0
1.33
2.33
-0.67
-1.67
-4.33
-7.0
6.67
-1.0
1.33
1.33
1.67
0.33
8.0
3.0
2.33
8.0
2.67
-0.33
2.0
6.67
4.67
6.0
-1.33
0.67
5.0
-2.67
12.0
18.33
16.33
7.0
11.33
-1.0
11.0
3.0
11.67
11.67
5.0
7.0
13.0
3.33
6.67
8.67
3.67
12.0
5.0
11.0
11.33
4.0
7.33
-12.33
13.67
9.33
10.0
4.0
13.0
12.67
13.33
7.33
4.67
5.67
5.0
2.0
15.33
24.0
10.33
28.67
41.67
87.0
105.67
89.67
51.33
12.33
16.0
4.67
13.33
15.0
9.67
-2.33
10.0
9.67
5.0
7.33
4.67
11.0
8.33
15.0
4.67
14.33
9.67
5.0
14.0
6.0
12.33
17.0
7.0
20.33
38.0
31.67
40.67
17.33
13.33
19.67
4.0
6.67
18.67
11.0
15.0
5.67
10.0
-3.0
1.67
3.0
10.0
2.67
15.33
1.67
0.67
7.33
6.33
-1.0
13.33
-4.0
10.67
9.33
-2.0
5.67
11.67
11.67
10.0
7.67
3.0
1.0
1.67
0.0
-5.33
6.0
-3.67
-0.67
0.0
5.33
3.0
-0.33
8.33
-5.0
4.67
-1.0
4.33
-7.0
3.0
4.0
9.33
1.67
-4.0
3.67
5.67
0.0
0.33
-1.33
-2.67
4.33
1.67
12.33
5.33
-3.67
-3.33
1.0
3.67
1.0
0.33
3.0
1.0
-0.67
0.33
0.33

File: 8.25.txt
0.0
73.33
77.33
13.0
-4.0
-0.33
0.0
1.0
0.0
0.67
0.0
-0.33
0.67
0.33
-1.0
0.0
-1.67
-0.67
1.0
4.33
-3.33
3.0
-4.33
-0.33
14.0
5.33
0.67
8.33
1.67
8.67
-1.33
0.33
-3.0
1.0
-0.33
7.33
0.67
-2.67
4.33
2.67
1.33
6.33
3.0
2.33
-0.67
-2.33
9.67
0.33
0.67
-0.33
-2.0
0.33
0.67
8.0
3.67
-0.67
4.0
9.0
0.33
-1.67
4.33
3.0
8.33
1.67
0.33
2.33
2.0
-2.67
0.33
0.0
-1.0
0.67
3.33
-0.33
0.0
-1.67
2.67
3.33
3.67
-5.0
-0.33
-1.33
-1.0
2.0
3.33
3.67
0.67
-1.33
3.0
0.33
2.67
0.0
-2.0
-0.33
-0.33
-1.33
-1.67
-0.67
1.33
-3.33
-4.33
-2.33
-1.33
-2.0
1.67
4.67
-2.33
0.0
4.33
-2.0
2.0
4.67
-0.33
2.67
0.33
3.0
26.67
18.67
-1.0
0.0
0.33
0.33
-4.67
-0.67
-0.33
0.0
-1.33
-2.0
-3.67
0.33
6.67
-9.67
5.0
-5.0
10.33
-2.0
3.67
3.67
5.0
4.67
4.67
0.0
-1.33
-2.33
6.0
5.33
9.0
12.33
20.33
11.0
3.33
5.0
3.0
-6.0
4.67
3.67
6.0
4.0
6.0
16.33
2.67
4.67
9.67
12.0
10.0
22.0
9.33
15.0
7.33
1.67
2.67
9.33
18.0
-6.0
5.0
0.67
9.33
16.33
10.67
6.67
10.0
6.0
23.33
15.0
28.33
18.67
48.67
93.0
105.67
65.67
67.33
14.33
24.0
7.67
11.33
4.0
20.67
7.67
-4.0
6.67
13.0
10.33
4.67
11.0
19.33
18.0
13.67
0.33
1.67
12.0
7.0
1.0
11.33
13.0
19.0
20.33
23.0
17.67
18.67
20.33
15.33
11.67
1.0
8.67
6.67
-1.0
17.0
6.67
1.0
-2.0
8.67
4.0
19.0
2.67
6.33
2.67
0.67
6.33
10.33
-4.0
5.33
5.0
-0.33
9.33
-5.0
5.67
-4.33
10.67
-2.0
9.67
3.0
9.0
0.67
9.0
-1.33
12.0
-9.67
5.33
3.0
10.33
1.0
2.67
-5.67
-7.0
-2.33
8.0
4.33
0.0
-3.0
1.0
5.33
2.67
8.0
2.67
9.67
-1.0
0.33
6.67
-1.67
5.33
5.67
1.33
-0.67
5.33
-3.33
5.0
3.67
-2.0
1.33
1.0
-1.0
7.33
-3.67
-2.67

File: 10.0.txt
0.0
-18.67
-25.67
2.0
-6.0
-0.33
1.0
1.0
1.0
0.67
1.0
0.67
0.67
-0.67
0.0
-1.0
-1.67
2.33
3.0
5.33
-4.33
2.0
-2.33
-2.33
3.0
2.33
-2.33
10.33
-6.33
2.67
7.67
7.33
2.0
1.0
2.67
-0.67
6.67
-1.67
1.33
-3.33
6.33
4.33
4.0
-0.67
4.33
-3.33
10.67
-5.67
-0.33
-1.33
-6.0
-1.67
-6.33
2.0
-1.33
2.33
0.0
7.0
1.33
-0.67
1.33
3.0
2.33
-0.33
5.33
5.33
1.0
0.33
2.33
2.0
-5.0
-0.33
3.33
1.67
-2.0
-3.67
4.67
-2.67
2.67
1.0
3.67
-1.33
2.0
3.0
6.33
3.67
-0.33
1.67
-3.0
2.33
1.67
-1.0
-1.0
-2.33
-1.33
2.67
-3.67
0.33
-2.67
-3.33
-1.33
-1.33
-6.33
3.0
7.67
4.67
1.67
3.0
-3.67
1.0
2.0
4.67
-1.33
11.67
2.33
17.0
40.67
30.67
8.0
1.0
-7.67
3.33
-1.67
-0.67
3.67
-5.0
3.67
-6.0
-3.67
3.33
2.67
-1.67
1.0
-8.0
4.33
6.0
4.67
1.67
-1.0
3.67
-0.33
-6.0
5.67
8.67
0.0
7.33
21.0
13.33
23.33
24.0
7.33
13.0
8.0
-1.0
4.67
5.67
9.0
14.0
7.0
11.33
3.67
7.67
2.67
10.0
7.0
15.0
16.33
10.0
11.33
10.67
11.67
22.33
5.0
5.0
7.0
14.67
15.33
13.33
7.67
0.67
7.0
3.0
0.33
16.0
23.33
30.67
52.67
95.0
147.67
125.67
70.33
25.33
5.0
16.67
14.33
5.0
5.67
-3.33
8.0
10.67
19.0
5.33
13.67
10.0
16.33
2.0
5.67
13.33
7.67
8.0
8.0
5.0
8.33
6.0
2.0
16.33
26.0
16.67
24.67
20.33
11.33
20.67
3.0
9.67
13.67
14.0
17.0
9.67
14.0
-11.0
-4.33
3.0
12.0
9.67
4.33
4.67
2.67
6.33
-7.67
15.0
15.33
-4.0
14.67
3.33
-5.0
1.67
-1.33
7.67
0.0
9.67
8.0
9.0
0.67
4.0
2.67
2.0
1.33
-0.67
11.0
7.33
11.0
2.67
4.33
-7.0
5.67
-3.0
1.33
0.0
3.0
-5.0
6.33
0.67
0.0
-0.33
2.67
-3.0
-6.67
-4.33
-3.67
3.33
-0.33
4.33
-2.67
5.33
-5.33
-1.0
1.67
0.0
4.33
4.0
4.0
3.33
-0.67
-6.67

File: 10.5.txt
0.0
37.33
19.33
-5.0
-14.0
-4.33
0.0
1.0
0.0
-0.33
1.0
-0.33
-0.33
0.33
-1.0
1.0
-2.67
3.33
2.0
-3.67
-0.33
1.0
-2.33
1.67
3.0
0.33
-5.33
4.33
-3.33
4.67
-1.33
1.33
-2.0
-1.0
1.67
2.33
8.67
-1.67
7.33
-4.33
10.33
7.33
-1.0
6.33
4.33
5.67
6.67
-1.67
3.67
-2.33
-7.0
3.33
1.67
1.0
2.67
5.33
2.0
-2.0
1.33
2.33
7.33
-1.0
-0.67
-2.33
0.33
1.33
-2.0
0.33
0.33
4.0
-3.0
5.67
-1.67
2.67
1.0
-3.67
5.67
-2.67
-2.33
-1.0
2.67
3.67
2.0
5.0
1.33
-0.33
-0.33
0.67
2.0
-2.67
-0.33
1.0
2.0
-3.33
-3.33
4.67
-1.67
-3.67
2.33
-2.33
-3.33
5.67
-0.33
-3.0
0.67
2.67
-2.33
-3.0
0.33
1.0
-4.0
4.67
1.67
1.67
6.33
39.0
27.67
26.67
8.0
3.0
10.33
5.33
1.33
5.33
-1.33
-4.0
5.67
2.0
-0.67
5.33
0.67
-1.67
9.0
-3.0
-2.67
-5.0
0.67
-0.33
2.0
-2.33
1.67
1.0
4.67
4.67
2.0
10.33
13.0
26.33
24.33
20.0
8.33
5.0
1.0
-1.0
4.67
-2.33
4.0
3.0
11.0
6.33
9.67
14.67
7.67
15.0
2.0
15.0
7.33
16.0
4.33
2.67
17.67
7.33
1.0
4.0
7.0
2.67
15.33
27.33
0.67
15.67
8.0
9.0
5.33
20.0
21.33
33.67
64.67
120.0
143.67
137.67
94.33
24.33
16.0
18.67
13.33
10.0
11.67
7.67
-7.0
8.67
5.0
-4.67
1.67
11.0
6.33
4.0
12.67
4.33
2.67
7.0
-1.0
12.0
2.33
12.0
-4.0
22.33
25.0
19.67
21.67
17.33
2.33
-7.33
3.0
9.67
1.67
2.0
10.0
3.67
5.0
1.0
0.67
10.0
10.0
9.67
14.33
10.67
-8.33
-2.67
4.33
8.0
1.33
-10.0
11.67
4.33
-3.0
0.67
1.67
10.67
15.0
20.67
4.0
-2.0
11.67
1.0
-0.33
-1.0
4.33
-1.67
3.0
-2.67
0.0
0.67
0.33
-1.0
-0.33
-6.0
2.33
0.0
3.0
5.0
0.33
4.67
1.0
1.67
8.67
1.0
4.33
0.67
-8.67
8.33
4.67
1.33
1.33
4.33
0.67
6.0
-0.33
2.0
-2.67
8.0
4.0
2.33
2.33
-3.67