Folder: EDX-Concrete-Analysis/EDX Back Ups and Old Files/Spectra copy 3.3.23/Samples/High pH BL 60C 6d

Note: README.md
This is Anthony's repository for doing all sorts of Energy Dispersive X-ray Analysis on concrete samples.

File: 6.0.txt
0.0
-118.67
-37.33
7.0
2.67
0.33
1.0
1.67
0.67
1.0
0.0
-0.67
-1.0
0.67
3.33
1.0
0.0
2.0
-6.67
3.67
-3.67
2.0
1.67
0.0
4.67
0.0
-2.67
-0.33
-0.33
8.67
1.67
0.0
-5.33
3.0
0.67
2.0
0.0
-1.0
3.33
1.33
6.67
11.33
3.33
2.0
-6.0
0.0
-3.67
2.0
1.67
3.33
2.0
3.0
-0.33
2.67
-0.67
-4.0
7.0
1.67
-1.33
-2.67
-4.33
4.0
3.33
5.33
4.33
6.0
6.33
4.67
1.0
3.33
8.33
2.67
5.33
0.67
4.0
3.33
-2.0
8.67
-0.33
0.33
0.67
3.67
2.33
4.33
-1.67
-1.0
-1.0
0.33
3.0
2.0
-0.33
2.0
1.67
-1.67
7.0
-0.33
2.33
-2.67
-2.67
0.67
-3.67
1.0
8.67
-0.33
1.33
0.0
-4.67
-6.67
4.0
4.67
2.33
-2.0
7.67
2.0
9.33
20.33
20.67
16.67
7.0
-2.67
5.33
5.0
12.33
-3.0
1.33
4.33
10.33
-4.67
9.33
4.33
5.0
11.0
1.67
3.67
7.0
10.0
-3.33
4.67
1.0
12.0
9.67
4.0
4.67
-1.67
8.33
3.33
17.0
13.0
29.67
13.0
15.0
0.67
6.67
1.33
8.0
9.33
4.33
6.33
5.0
7.67
4.67
1.67
-1.0
4.67
12.0
13.67
10.33
13.0
1.33
11.33
8.33
4.67
8.33
8.33
7.33
8.33
18.0
7.33
2.67
12.0
2.0
15.0
14.0
17.0
11.67
26.67
33.33
90.33
91.33
99.0
39.0
11.67
10.67
12.0
14.67
17.33
5.67
14.0
12.0
19.67
9.0
7.67
-0.67
10.33
4.33
3.0
7.33
22.33
20.67
19.0
10.33
5.67
8.33
-3.33
21.0
9.0
19.33
29.0
18.0
25.67
6.67
-2.0
12.33
6.67
4.0
19.0
1.0
2.33
8.33
14.33
5.0
-2.67
-2.0
11.0
1.67
5.0
8.0
1.67
3.33
1.33
0.0
2.0
1.67
-0.67
3.33
8.0
9.0
9.0
-3.0
15.0
9.33
5.67
-2.33
6.0
12.67
2.33
4.33
1.67
-4.67
2.33
-0.33
5.67
4.33
3.67
-6.0
3.0
1.0
5.33
0.33
3.0
3.0
4.0
-3.67
3.33
1.67
-6.33
2.67
-2.0
0.33
1.33
5.67
3.67
0.33
1.67
5.67
-3.33
2.0
-3.33
2.67
-3.33
3.0
2.67
3.0
-1.67

File: 6.25.txt
0.0
19.33
37.67
-7.0
6.67
1.33
1.0
0.67
0.67
0.0
0.0
-0.67
-1.0
1.67
-0.67
0.0
1.0
5.0
-0.67
4.67
2.33
4.0
0.67
9.0
-1.33
-2.0
-2.67
0.67
5.67
-0.33
5.67
10.0
1.67
2.0
2.67
7.0
2.0
9.0
-2.67
10.33
2.67
9.33
0.33
1.0
-2.0
6.0
4.33
2.0
-6.33
6.33
1.0
5.0
-2.33
0.67
0.33
0.0
0.0
2.67
-0.33
-5.67
0.67
4.0
5.33
3.33
-3.67
0.0
-1.67
3.67
2.0
6.33
5.33
4.67
2.33
2.67
-1.0
-0.67
4.0
7.67
1.67
-0.67
6.67
3.67
1.33
2.33
0.33
1.0
0.0
-1.67
2.0
0.0
0.67
-2.0
0.67
-0.67
3.0
0.67
-2.67
7.33
-0.67
-1.33
-3.67
0.0
7.67
-2.33
3.33
3.0
-2.67
-4.67
4.0
6.67
3.33
1.0
6.67
11.0
5.33
17.33
28.67
25.67
8.0
6.33
10.33
2.0
1.33
3.0
5.33
5.33
1.33
1.33
-0.67
-3.67
2.0
10.0
-1.33
8.67
4.0
-2.0
7.67
-0.33
2.0
6.0
1.67
1.0
5.67
5.33
6.33
3.33
6.0
21.0
24.67
14.0
13.0
10.67
0.67
3.33
8.0
12.33
7.33
9.33
8.0
3.67
6.67
1.67
5.0
5.67
8.0
9.67
5.33
-1.0
16.33
13.33
1.33
9.67
4.33
8.33
5.33
10.33
5.0
1.33
7.67
12.0
5.0
4.0
21.0
13.0
6.67
28.67
38.33
67.33
103.33
76.0
61.0
11.67
8.67
12.0
0.67
8.33
1.67
8.0
17.0
2.67
5.0
9.67
1.33
11.33
-0.67
18.0
17.33
12.33
14.67
0.0
3.33
8.67
8.33
9.67
24.0
25.0
28.33
40.0
32.0
23.67
7.67
8.0
-0.67
24.67
16.0
14.0
3.0
2.33
2.33
17.33
18.0
7.33
5.0
11.0
7.67
8.0
3.0
7.67
10.33
-1.67
7.0
-1.0
-1.33
12.33
4.33
3.0
6.0
4.0
3.0
14.0
12.33
7.67
6.67
4.0
4.67
5.33
10.33
1.67
-2.67
1.33
3.67
4.67
4.33
-6.33
-3.0
-1.0
-1.0
2.33
0.33
6.0
2.0
2.0
8.33
-4.67
3.67
3.67
1.67
-4.0
6.33
1.33
-4.33
-0.33
-2.67
1.67
5.67
4.67
1.0
0.67
4.67
-3.33
-1.0
0.67
-3.0
-6.67

File: 7.5.txt
0.0
-102.67
10.67
-7.0
5.67
1.33
2.0
-0.33
0.67
1.0
1.0
0.33
1.0
-0.33
0.33
2.0
3.0
2.0
0.33
-0.33
-0.67
5.0
1.67
3.0
-3.33
1.0
1.33
-0.33
5.67
1.67
2.67
0.0
0.67
6.0
-0.33
2.0
7.0
5.0
-0.67
-6.67
4.67
3.33
6.33
11.0
1.0
7.0
2.33
1.0
-0.33
2.33
-2.0
1.0
-4.33
-0.33
-3.67
-5.0
-3.0
8.67
-3.33
3.33
3.67
6.0
-2.67
0.33
-0.67
7.0
7.33
4.67
1.0
-1.67
2.33
1.67
-2.67
2.67
1.0
3.33
1.0
0.67
0.67
1.33
-1.33
4.67
0.33
-0.67
1.33
11.0
2.0
0.33
3.0
4.0
2.67
-2.0
5.67
-1.67
6.0
2.67
6.33
-1.67
-1.67
0.67
6.33
-3.0
1.67
-3.33
-1.67
5.0
-2.67
5.33
0.0
2.67
3.33
-1.0
3.67
0.0
5.33
27.33
27.67
24.67
10.0
0.33
-2.67
4.0
-0.67
1.0
8.33
1.33
-4.67
-0.67
8.33
7.33
3.0
6.0
5.67
4.67
9.0
11.0
4.67
-0.33
5.0
3.0
4.67
-1.0
2.67
9.33
-2.67
11.33
8.0
12.0
18.67
13.0
5.0
2.67
11.67
2.33
7.0
7.33
11.33
7.33
4.0
0.67
0.67
3.67
3.0
13.67
6.0
7.67
9.33
9.0
10.33
11.33
5.33
13.67
6.33
8.33
7.33
8.33
11.0
2.33
2.67
8.0
8.0
5.0
14.0
15.0
18.67
34.67
47.33
86.33
115.33
115.0
43.0
10.67
16.67
12.0
26.67
11.33
5.67
1.0
10.0
15.67
13.0
1.67
11.33
3.33
3.33
6.0
23.33
7.33
6.67
1.0
5.33
7.67
8.33
13.67
28.0
20.0
24.33
53.0
30.0
16.67
4.67
11.0
1.33
5.67
7.0
10.0
4.0
-0.67
-5.67
11.33
16.0
7.33
-6.0
16.0
3.67
14.0
8.0
7.67
11.33
4.33
12.0
-1.0
4.67
-6.67
1.33
9.0
-5.0
5.0
5.0
10.0
26.33
2.67
11.67
-1.0
7.67
-4.67
12.33
4.67
-5.67
-0.67
8.67
9.67
6.33
-1.33
4.0
0.0
3.0
8.33
-6.67
13.0
0.0
-1.0
5.33
-7.67
5.67
-1.33
1.67
0.0
1.33
1.33
4.67
-2.33
-0.67
0.67
0.67
-0.33
0.0
-0.33
3.67
4.67
-5.0
-1.33
4.0
-4.67

File: 8.0.txt
0.0
-48.67
4.67
-22.0
-1.33
-1.67
0.0
-0.33
-0.33
0.0
1.0
0.33
-1.0
-0.33
0.33
0.0
2.0
6.0
-4.67
-1.33
-5.67
2.0
-7.33
3.0
0.67
-2.0
4.33
3.67
3.67
1.67
-5.33
-6.0
-0.33
-2.0
-3.33
2.0
8.0
-3.0
-3.67
4.33
4.67
6.33
4.33
4.0
12.0
5.0
0.33
1.0
-0.33
4.33
-1.0
3.0
-4.33
4.67
-3.67
1.0
0.0
0.67
-2.33
7.33
0.67
1.0
5.33
-2.67
-5.67
4.0
0.33
5.67
-2.0
5.33
4.33
1.67
1.33
-0.33
1.0
0.33
3.0
1.67
-1.33
2.33
7.67
-1.33
3.33
2.33
-1.67
2.0
0.0
0.33
4.0
1.0
1.67
-1.0
0.67
2.33
6.0
-1.33
-1.67
-1.67
-0.67
-0.33
0.33
1.0
0.67
1.67
-1.67
-1.0
1.33
2.33
3.0
-2.33
-1.67
-6.0
8.67
3.0
8.33
29.33
34.67
28.67
9.0
8.33
3.33
6.0
0.33
2.0
2.33
-0.67
-2.67
-2.67
7.33
2.33
0.0
6.0
7.67
8.67
9.0
8.0
3.67
-0.33
-3.0
6.0
-3.33
15.0
7.67
7.33
8.33
11.33
10.0
15.0
21.67
21.0
8.0
-2.33
-2.33
5.33
7.0
5.33
8.33
0.33
3.0
13.67
8.67
5.67
-2.0
-1.33
10.0
8.67
0.33
6.0
12.33
9.33
-5.67
16.67
2.33
4.33
6.33
2.33
11.0
21.33
-1.33
10.0
1.0
7.0
8.0
9.0
31.67
17.67
35.33
86.33
108.33
102.0
58.0
17.67
18.67
12.0
5.67
11.33
8.67
19.0
17.0
17.67
4.0
7.67
6.33
9.33
10.33
7.0
11.33
11.33
15.67
11.0
14.33
10.67
-5.67
1.67
19.0
17.0
26.33
45.0
19.0
20.67
10.67
15.0
4.33
8.67
4.0
10.0
-2.0
1.33
10.33
12.33
6.0
10.33
3.0
9.0
-0.33
15.0
1.0
10.67
5.33
3.33
12.0
-10.0
2.67
5.33
4.33
-4.0
4.0
10.0
5.0
0.0
6.33
2.67
6.67
0.0
6.67
8.33
0.33
1.67
-1.67
4.33
9.67
-0.33
3.33
1.67
4.0
-1.0
1.0
0.33
2.33
-1.0
-1.0
-1.0
6.33
1.33
5.67
0.67
6.67
-2.0
-2.67
6.33
3.67
2.67
2.33
1.67
-2.33
-5.33
-1.0
-1.33
-1.33
-2.33
2.0
2.67
3.0
-4.67

File: 9.25.txt
0.0
-30.67
51.67
2.0
9.67
2.33
0.0
-0.33
0.67
1.0
0.0
0.33
-1.0
0.67
0.33
3.0
2.0
-1.0
-0.67
-0.33
2.33
2.0
1.67
6.0
2.67
0.0
-3.67
4.67
2.67
0.67
2.67
-5.0
-1.33
11.0
-1.33
1.0
-1.0
4.0
1.33
0.33
1.67
0.33
3.33
14.0
-1.0
-1.0
0.33
2.0
2.67
1.33
-3.0
1.0
-2.33
5.67
2.33
-2.0
3.0
6.67
-0.33
2.33
1.67
7.0
-1.67
1.33
-1.67
4.0
8.33
4.67
-3.0
1.33
-4.67
1.67
0.33
1.67
4.0
-0.67
2.0
2.67
-1.33
-2.67
-0.33
2.67
6.33
2.33
2.33
-2.0
1.0
-1.67
5.0
2.0
3.67
-4.0
5.67
-1.67
0.0
-4.33
4.33
1.33
1.33
-0.33
0.33
-3.0
-2.33
-0.33
1.33
2.0
-1.67
-5.67
0.0
3.67
2.33
-1.0
2.67
8.0
9.33
12.33
26.67
19.67
4.0
1.33
3.33
11.0
6.33
9.0
2.33
-3.67
3.33
0.33
3.33
2.33
3.0
8.0
-0.33
2.67
4.0
1.0
8.67
1.67
2.0
3.0
-1.33
2.0
0.67
6.33
-0.67
15.33
12.0
24.0
35.67
15.0
12.0
6.67
9.67
-2.67
10.0
10.33
18.33
4.33
1.0
1.67
13.67
8.67
5.0
0.67
5.0
10.67
7.33
5.0
12.33
4.33
1.33
6.67
3.33
8.33
4.33
12.33
17.0
9.33
6.67
7.0
3.0
10.0
12.0
14.0
14.67
23.67
73.33
128.33
138.33
117.0
71.0
30.67
16.67
3.0
13.67
8.33
4.67
15.0
16.0
11.67
10.0
5.67
5.33
15.33
12.33
5.0
22.33
10.33
16.67
8.0
9.33
2.67
5.33
19.67
12.0
18.0
15.33
40.0
17.0
18.67
9.67
0.0
5.33
4.67
-2.0
10.0
5.0
-0.67
-2.67
8.33
9.0
5.33
1.0
3.0
-0.33
12.0
8.0
6.67
7.33
6.33
-1.0
1.0
-0.33
-3.67
-1.67
2.0
-2.0
8.0
4.0
-1.0
8.33
3.67
-2.33
-3.0
2.67
5.33
6.33
-10.33
-4.67
7.33
8.67
0.67
-2.67
1.67
8.0
-3.0
7.0
5.33
-7.67
4.0
3.0
4.0
14.33
5.33
3.67
0.67
-4.33
-5.0
-0.67
1.33
1.67
-0.33
2.33
4.67
0.67
2.67
7.0
1.67
2.67
-2.33
-5.0
5.67
-3.0
-3.67

File: 9.75.txt
0.0
-60.67
-36.33
-20.0
-2.33
0.33
0.0
-0.33
0.67
1.0
1.0
0.33
0.0
-0.33
1.33
0.0
1.0
3.0
-1.67
-0.33
3.33
1.0
3.67
3.0
0.67
3.0
-0.67
7.67
1.67
1.67
-0.33
0.0
1.67
6.0
1.67
1.0
1.0
-7.0
-4.67
1.33
0.67
10.33
-0.67
3.0
4.0
5.0
-5.67
0.0
3.67
-0.67
3.0
3.0
-2.33
-0.33
2.33
-3.0
-5.0
4.67
-0.33
-0.67
4.67
3.0
3.33
-1.67
-0.67
4.0
2.33
9.67
8.0
-2.67
0.33
1.67
0.33
2.67
0.0
-0.67
-2.0
0.67
-0.33
0.33
-0.33
2.67
2.33
-0.67
1.33
-2.0
-2.0
0.33
4.0
4.0
1.67
5.0
1.67
5.33
2.0
-4.33
2.33
2.33
-0.67
-2.33
1.33
8.0
1.67
3.67
2.33
2.0
-1.67
1.33
1.0
3.67
-1.67
-3.0
-3.33
1.0
3.33
3.33
0.67
-1.33
1.0
-5.67
3.33
4.0
2.33
0.0
5.33
5.33
2.33
-0.67
5.33
2.33
3.0
7.0
3.67
12.67
2.0
6.0
13.67
2.67
4.0
8.0
0.67
2.0
2.67
6.33
9.33
9.33
22.0
35.0
31.67
19.0
16.0
3.67
4.67
3.33
10.0
3.33
9.33
2.33
5.0
3.67
4.67
6.67
5.0
6.67
3.0
16.67
4.33
12.0
4.33
7.33
-1.67
9.67
5.33
5.33
14.33
24.33
17.0
7.33
7.67
5.0
1.0
10.0
10.0
11.0
23.67
46.67
97.33
160.33
201.33
159.0
88.0
18.67
18.67
5.0
9.67
10.33
4.67
5.0
15.0
9.67
1.0
9.67
6.33
3.33
-0.67
-2.0
7.33
17.33
8.67
-5.0
3.33
5.67
1.33
8.67
16.0
1.0
10.33
10.0
3.0
17.67
6.67
15.0
0.33
-6.33
2.0
-2.0
-2.0
9.33
5.33
21.33
-1.0
11.33
6.0
6.0
-5.33
10.0
2.0
2.67
-1.67
4.33
-2.0
-10.0
8.67
2.33
-2.67
6.0
-7.0
7.0
5.0
3.0
12.33
16.67
2.67
3.0
-1.33
-2.67
3.33
0.67
-8.67
10.33
7.67
8.67
-4.67
-1.33
1.0
5.0
1.0
0.33
-4.67
13.0
2.0
-1.0
6.33
5.33
2.67
3.67
-0.33
-3.0
-0.67
6.33
5.67
-2.33
-0.67
-0.33
1.67
4.67
2.0
-3.33
-0.33
-2.33
-3.0
4.67
-7.0
-3.67

File: 11.0.txt
0.0
-33.67
-25.33
-16.0
-1.33
0.33
1.0
-0.33
-0.33
1.0
2.0
-0.67
-1.0
-0.33
0.33
5.0
0.0
2.0
-3.67
0.67
-3.67
3.0
-4.33
12.0
3.67
5.0
-0.67
2.67
3.67
-0.33
-5.33
-1.0
-4.33
1.0
3.67
12.0
10.0
-2.0
4.33
1.33
0.67
1.33
7.33
3.0
0.0
-2.0
2.33
7.0
-4.33
2.33
6.0
3.0
-4.33
-1.33
0.33
7.0
-4.0
3.67
-3.33
-1.67
-0.33
3.0
6.33
5.33
-0.67
-1.0
-0.67
5.67
1.0
-0.67
-1.67
4.67
-1.67
3.67
2.0
3.33
-3.0
0.67
3.67
-3.67
-0.33
4.67
2.33
2.33
2.33
1.0
5.0
1.33
2.0
-2.0
0.67
-2.0
3.67
-1.67
0.0
-3.33
1.33
-3.67
-4.67
-1.33
-2.67
-2.0
2.67
-0.33
-4.67
-1.0
6.33
-1.67
-1.0
2.67
3.33
-3.0
3.67
0.0
4.33
1.33
6.67
2.67
4.0
-0.67
0.33
0.0
0.33
2.0
2.33
-0.67
4.33
-2.67
4.33
-1.67
5.0
7.0
-0.33
5.67
4.0
4.0
8.67
4.67
5.0
7.0
-1.33
2.0
4.67
15.33
1.33
10.33
23.0
37.0
48.67
28.0
17.0
0.67
8.67
5.33
6.0
0.33
9.33
-0.67
10.0
0.67
3.67
10.67
6.0
5.67
19.0
-0.33
0.33
3.0
20.33
8.33
7.33
7.67
2.33
11.33
9.33
1.33
12.0
8.33
6.67
8.0
9.0
0.0
9.0
6.0
23.67
45.67
95.33
171.33
234.33
187.0
82.0
34.67
10.67
-2.0
5.67
8.33
18.67
7.0
1.0
9.67
14.0
8.67
10.33
3.33
4.33
11.0
13.33
10.33
21.67
6.0
12.33
4.67
0.33
15.67
11.0
0.0
3.33
12.0
0.0
5.67
-9.33
-4.0
4.33
3.67
6.0
9.0
7.0
6.33
23.33
25.33
13.0
1.33
10.0
2.0
7.67
4.0
4.0
12.67
2.33
-0.67
6.0
-5.0
-0.33
5.33
5.33
-1.0
6.0
3.0
10.0
11.0
7.33
25.67
15.67
-7.0
4.67
-0.67
16.33
1.67
-9.67
5.33
7.67
7.67
-3.67
-3.33
-3.0
7.0
0.0
-0.67
-4.67
9.0
6.0
5.0
9.33
1.33
4.67
0.67
1.67
4.0
0.33
3.33
4.67
-1.33
-0.67
4.67
-1.33
-5.33
0.0
1.67
-2.33
-2.33
2.0
2.67
0.0
-2.67

File: 11.25.txt
0.0
-0.67
-13.33
22.0
4.67
0.33
3.0
2.67
-0.33
1.0
0.0
-0.67
0.0
1.67
0.33
0.0
-1.0
2.0
-2.67
-3.33
-0.67
7.0
-3.33
9.0
-2.33
-1.0
1.33
6.67
2.67
-2.33
-5.33
-5.0
-7.33
-4.0
-3.33
-1.0
0.0
0.0
-0.67
3.33
2.67
3.33
1.33
2.0
-5.0
1.0
-4.67
4.0
0.67
-0.67
0.0
5.0
1.67
5.67
-1.67
-10.0
0.0
-1.33
-7.33
-4.67
-3.33
1.0
3.33
-3.67
-4.67
1.0
1.33
0.67
-1.0
0.33
-2.67
5.67
-1.67
-0.33
1.0
-4.67
-1.0
1.67
-0.33
-1.67
2.67
-0.33
-1.67
5.33
4.33
-2.0
4.0
0.33
0.0
3.0
-1.33
-2.0
5.67
-1.67
3.0
-6.33
-1.67
1.33
0.33
1.67
-1.67
2.0
12.67
3.67
4.33
3.0
1.33
0.33
1.0
2.67
4.33
-4.0
-1.33
1.0
0.33
-3.67
-0.33
-0.33
2.0
-1.67
2.33
2.0
3.33
2.0
6.33
-0.67
5.33
-0.67
10.33
3.33
4.0
8.0
-1.33
17.67
9.0
9.0
2.67
-0.33
7.0
8.0
4.67
7.0
2.67
7.33
11.33
11.33
18.0
27.0
38.67
28.0
22.0
4.67
6.67
8.33
7.0
7.33
6.33
7.33
6.0
0.67
5.67
12.67
1.0
8.67
11.0
18.67
11.33
11.0
9.33
14.33
-6.67
14.67
4.33
15.33
9.33
6.33
16.0
9.33
-3.33
4.0
8.0
10.0
8.0
15.0
14.67
27.67
106.33
206.33
246.33
179.0
104.0
22.67
21.67
4.0
16.67
10.33
4.67
3.0
5.0
18.67
6.0
24.67
7.33
8.33
-6.67
2.0
15.33
7.33
11.67
-3.0
6.33
11.67
5.33
4.67
5.0
-1.0
7.33
-3.0
-3.0
3.67
-3.33
2.0
1.33
-1.33
2.0
0.0
3.0
17.33
6.33
15.33
20.0
3.33
11.0
3.0
15.67
7.0
-6.0
1.67
1.33
-5.67
-6.0
-2.0
11.67
3.33
-1.67
9.0
4.0
8.0
4.0
-4.0
13.33
25.67
0.67
9.0
4.67
3.33
6.33
-0.33
-0.67
9.33
-7.33
5.67
-1.67
2.67
2.0
-2.0
3.0
-0.67
5.33
4.0
4.0
3.0
8.33
2.33
8.67
2.67
1.67
-5.0
-5.67
3.33
-0.33
-0.33
-3.67
3.67
0.67
0.67
0.0
-0.33
-3.33
-0.33
-2.0
3.67
0.0
-2.67

File: 11.75.txt
0.0
13.33
4.67
-2.0
-1.33
1.33
1.0
1.67
0.67
0.0
1.0
0.33
0.0
-0.33
-0.67
2.0
0.0
0.0
-0.67
2.67
-4.67
0.0
-3.33
8.0
1.67
-1.0
-3.67
2.67
5.67
-2.33
6.67
-2.0
0.67
-4.0
2.67
11.0
7.0
1.0
-1.67
-1.67
-0.33
5.33
0.33
6.0
-2.0
1.0
-3.67
7.0
-0.33
4.33
-3.0
1.0
-4.33
2.67
-3.67
-6.0
-1.0
1.67
1.67
-2.67
-1.33
4.0
-2.67
0.33
-3.67
2.0
4.33
2.67
-2.0
0.33
1.33
1.67
-3.67
4.67
0.0
5.33
2.0
1.67
2.67
-4.67
2.67
-1.33
4.33
3.33
0.33
-5.0
4.0
-4.67
1.0
0.0
0.67
-5.0
0.67
-2.67
2.0
3.67
-1.67
-3.67
3.33
0.67
1.33
-1.0
2.67
1.67
-0.67
7.0
2.33
2.33
-3.0
5.67
-0.67
-5.0
3.67
-5.0
1.33
2.33
-4.33
2.67
7.0
1.33
2.33
4.0
1.33
3.0
2.33
0.33
10.33
1.33
5.33
2.33
5.0
7.0
-0.33
12.67
8.0
0.0
9.67
-0.33
0.0
16.0
11.67
9.0
8.67
7.33
10.33
22.33
18.0
32.0
43.67
29.0
22.0
8.67
9.67
0.33
11.0
4.33
9.33
6.33
4.0
4.67
5.67
2.67
6.0
-3.33
18.0
10.67
11.33
14.0
11.33
8.33
-9.67
7.67
4.33
8.33
1.33
-0.67
14.0
11.33
-2.33
10.0
1.0
9.0
9.0
14.0
20.67
50.67
108.33
196.33
272.33
243.0
97.0
56.67
18.67
19.0
2.67
8.33
4.67
15.0
3.0
5.67
4.0
7.67
4.33
9.33
-3.67
0.0
7.33
9.33
17.67
1.0
-2.67
8.67
-2.67
7.67
2.0
3.0
12.33
5.0
-2.0
2.67
-1.33
5.0
2.33
3.67
3.0
6.0
0.0
5.33
7.33
13.33
6.0
1.33
5.0
13.0
1.67
7.0
5.0
3.67
4.33
3.33
0.0
-8.0
6.67
8.33
3.33
-2.0
1.0
10.0
14.0
5.0
11.33
11.67
18.67
2.0
4.67
2.33
9.33
-3.33
2.33
2.33
-0.33
6.67
-0.67
11.67
1.0
1.0
0.0
4.33
8.33
3.0
1.0
-2.0
7.33
0.33
-3.33
1.67
4.67
-1.0
2.33
-2.67
-0.33
-7.33
-2.67
-0.33
1.67
-1.33
4.0
0.67
1.67
-0.33
0.0
1.67
-2.0
-2.67