Folder: EDX-Concrete-Analysis/EDX Back Ups and Old Files/Spectra copy 3.3.23/Samples/High pH SF 60C 4d

Note: README.md
This is Anthony's repository for doing all sorts of Energy Dispersive X-ray Analysis on concrete samples.

File: 6.25.txt
0.0
-97.67
33.33
20.33
-3.0
-1.67
0.0
-0.67
-0.67
-0.33
0.67
1.67
-0.33
0.33
-0.33
0.67
1.33
3.0
3.33
5.0
3.67
3.0
-7.67
-1.33
-2.33
0.33
-2.0
3.0
7.0
3.67
-5.0
3.33
-1.0
4.0
-7.67
5.67
3.0
6.0
8.33
6.33
1.33
-3.33
4.33
6.0
2.0
3.67
-2.33
-1.0
3.67
7.67
-1.33
-1.0
5.33
-0.33
2.33
2.67
-2.0
1.33
0.67
3.33
4.33
2.0
0.33
1.67
-0.67
6.33
-0.67
1.33
0.67
6.0
1.33
0.0
-0.33
-1.67
0.0
1.0
-0.67
5.0
3.0
3.0
-2.67
-0.33
5.33
-5.0
0.67
-1.0
-1.33
-2.67
-0.33
1.67
-2.67
-1.0
-1.33
1.67
-6.33
-2.0
-4.33
-1.0
1.0
-7.0
-2.33
-7.67
-3.0
-5.0
-5.67
-6.67
-4.67
-2.67
-0.33
-1.67
-7.67
-5.33
-5.67
0.0
-1.33
3.33
24.67
7.33
-4.0
-5.67
-6.0
-11.67
-3.67
-14.67
-1.67
-2.0
-7.0
-11.0
-13.33
-2.33
0.67
-3.0
-5.67
-4.0
-12.33
-7.33
-12.67
-3.0
-13.67
-9.67
-13.33
-2.67
-12.33
-10.0
-6.0
-8.67
1.67
3.0
10.0
4.33
11.67
2.0
-8.67
-7.67
-1.0
-3.0
4.67
2.33
-2.67
-5.0
-3.33
0.33
-0.67
1.33
10.33
2.33
11.33
-0.67
3.0
4.67
-3.67
8.0
-0.33
2.33
-1.0
9.67
-10.33
12.0
12.67
-10.0
-1.0
6.67
9.33
16.0
17.67
22.33
37.33
74.67
73.33
77.67
36.0
15.33
8.67
15.0
0.0
0.67
11.33
7.0
4.0
10.67
13.0
10.67
15.67
2.33
14.67
2.67
17.67
12.0
0.0
-2.0
-1.0
-1.0
2.0
-0.33
3.67
25.67
11.0
27.0
28.67
22.67
4.33
-3.33
9.67
15.0
8.67
3.67
10.33
6.33
1.67
4.0
4.67
11.67
0.0
2.67
7.67
5.0
-5.0
14.33
3.33
-3.67
-5.33
10.0
7.33
12.33
-3.33
7.67
6.33
-1.33
8.0
-5.67
2.0
0.33
2.33
5.0
6.33
-2.0
0.67
-3.0
4.33
8.33
2.0
2.33
-2.67
2.33
0.33
-6.33
3.67
-0.33
-2.67
6.67
-3.33
-1.33
1.67
-4.0
3.67
2.33
-1.0
-1.33
-0.67
-5.0
1.33
3.33
-1.67
-1.33
2.33
2.67
9.33
6.33
-2.33
4.33
3.67
0.0
3.67
6.0

File: 6.75.txt
0.0
4.33
60.33
28.33
3.0
-0.67
1.0
-0.67
0.33
0.67
0.67
0.67
2.67
0.33
0.67
1.67
4.33
0.0
3.33
8.0
1.67
-4.0
-0.67
1.67
1.67
-7.67
-4.0
8.0
1.0
3.67
-1.0
6.33
0.0
3.0
-3.67
0.67
2.0
0.0
7.33
1.33
1.33
6.67
3.33
1.0
4.0
7.67
0.67
-7.0
5.67
9.67
0.67
3.0
3.33
5.67
2.33
2.67
0.0
0.33
1.67
3.33
2.33
4.0
0.33
0.67
-0.67
1.33
-2.67
-2.67
7.67
3.0
0.33
2.0
-3.33
2.33
-3.0
0.0
2.33
6.0
7.0
5.0
1.33
-0.33
1.33
-6.0
1.67
1.0
0.67
-1.67
-4.33
2.67
-1.67
0.0
-0.33
-0.33
-5.33
-3.0
-7.33
2.0
2.0
-4.0
-2.33
-6.67
-3.0
3.0
-7.67
-5.67
-1.67
-4.67
-2.33
-6.67
-4.67
-6.33
-4.67
8.0
0.67
14.33
19.67
3.33
-2.0
-8.67
-5.0
-6.67
-6.67
-4.67
-7.67
-2.0
-9.0
-6.0
-6.33
-2.33
-4.33
-6.0
-0.67
-1.0
-6.33
-0.33
-4.67
-11.0
1.33
-9.67
-3.33
4.33
-3.33
-12.0
-9.0
-8.67
-5.33
1.0
9.0
5.33
6.67
5.0
-9.67
-2.67
-6.0
-8.0
-11.33
-7.67
2.33
2.0
3.67
0.33
5.33
2.33
2.33
7.33
-4.67
1.33
2.0
15.67
-6.67
4.0
6.67
6.33
12.0
14.67
-4.33
5.0
0.67
3.0
-1.0
-3.33
1.33
10.0
11.67
20.33
24.33
84.67
80.33
49.67
31.0
2.33
7.67
10.0
11.0
2.67
8.33
1.0
6.0
4.67
-1.0
5.67
8.67
2.33
3.67
4.67
7.67
8.0
6.0
14.0
6.0
2.0
12.0
-11.33
20.67
10.67
4.0
22.0
24.67
29.67
17.33
2.67
8.67
4.0
-1.33
1.67
7.33
-4.67
14.67
8.0
9.67
-2.33
11.0
-0.33
8.67
5.0
-2.0
4.33
-4.67
-6.67
-2.33
-1.0
2.33
11.33
5.67
6.67
2.33
-2.33
6.0
-0.67
-2.0
3.33
7.33
-4.0
7.33
-2.0
10.67
-5.0
6.33
-1.67
10.0
-9.67
10.33
-1.67
-5.67
1.67
5.67
4.67
9.33
-1.33
-0.33
-0.33
10.67
2.0
-3.33
2.33
1.0
-3.33
-1.67
-6.0
6.33
4.33
-1.67
2.67
3.33
0.67
6.33
8.33
-5.33
3.33
1.67
4.0
6.67
5.0

File: 8.0.txt
0.0
18.33
45.33
13.33
6.0
1.33
0.0
-0.67
-0.67
-0.33
-0.33
-0.33
-0.33
0.33
1.67
1.67
2.33
0.0
-1.67
3.0
-1.33
-1.0
0.33
3.67
-0.33
-4.67
-2.0
1.0
6.0
2.67
-5.0
3.33
-1.0
1.0
-1.67
8.67
4.0
4.0
3.33
3.33
3.33
7.67
-2.67
1.0
-1.0
-2.33
-1.33
0.0
1.67
7.67
1.67
1.0
3.33
7.67
-0.67
4.67
5.0
1.33
0.67
2.33
0.33
5.0
-2.67
2.67
5.33
3.33
5.33
-3.67
2.67
-1.0
-1.67
1.0
-0.33
2.33
4.0
-4.0
0.33
2.0
0.0
-2.0
-0.67
0.67
0.33
-5.0
0.67
-1.0
-4.33
1.33
-0.33
-1.33
3.33
0.0
-1.33
-1.33
-2.33
0.0
-1.33
2.0
3.0
-1.0
-2.33
-7.67
-1.0
-1.0
-4.67
-6.67
-5.67
2.33
-1.33
0.33
-8.67
-9.33
-7.67
2.0
-0.33
2.33
28.67
16.33
-4.0
-7.67
-5.0
-10.67
-9.67
-6.67
-5.67
-3.0
-2.0
-7.0
-7.33
-3.33
-6.33
3.0
-0.67
-11.0
-8.33
-5.33
-6.67
-2.0
-14.67
-7.67
-11.33
-4.67
-8.33
-11.0
-8.0
1.33
-1.33
15.0
19.0
9.33
4.67
-3.0
-8.67
0.33
0.0
-2.0
-0.33
4.33
4.33
-3.0
0.67
3.33
5.33
14.33
-0.67
-3.67
0.33
-4.67
-2.0
1.67
-6.67
-7.0
6.67
7.33
-3.0
12.67
2.67
-5.0
5.67
1.0
7.0
6.67
7.33
13.0
30.67
18.33
49.33
67.67
79.33
61.67
53.0
8.33
13.67
10.0
-3.0
-5.33
-1.67
9.0
9.0
10.67
-4.0
11.67
9.67
3.33
-2.33
24.67
20.67
5.0
0.0
7.0
0.0
10.0
13.0
11.67
13.67
5.67
0.0
35.0
26.67
26.67
27.33
7.67
-5.33
4.0
5.67
2.67
4.33
1.33
11.67
7.0
6.67
1.67
10.0
-3.33
24.67
11.0
6.0
-2.67
3.33
1.33
-10.33
-7.0
-0.67
-5.67
-5.33
8.67
-2.67
5.67
4.0
-2.67
3.0
0.33
0.33
7.0
1.33
4.0
-4.33
4.0
2.33
0.33
0.0
-7.67
2.33
3.33
0.33
-0.33
1.67
-0.33
4.33
-0.33
7.67
-0.33
4.67
3.0
1.67
1.33
-2.0
-0.33
-7.67
-1.0
2.33
3.33
0.33
2.67
0.33
5.67
6.33
6.33
2.67
2.33
0.67
-2.0
2.67
3.0

File: 9.0.txt
0.0
9.33
-39.67
16.33
9.0
-1.67
0.0
-0.67
-0.67
0.67
-0.33
0.67
-0.33
-0.67
1.67
0.67
2.33
2.0
1.33
-1.0
3.67
-1.0
-4.67
-1.33
2.67
-1.67
5.0
4.0
10.0
0.67
-5.0
-0.67
-1.0
8.0
-3.67
1.67
-5.0
1.0
2.33
8.33
-4.67
-2.33
0.33
9.0
0.0
3.67
-1.33
-3.0
1.67
7.67
3.67
8.0
1.33
2.67
2.33
-2.33
0.0
0.33
-0.33
-0.67
3.33
5.0
0.33
4.67
2.33
2.33
3.33
2.33
-3.33
-1.0
-0.67
-4.0
-5.33
3.33
-2.0
2.0
8.33
-1.0
3.0
3.0
4.33
1.67
3.33
-2.0
2.67
0.0
1.67
1.33
-1.33
0.67
-4.67
4.0
-1.33
-2.33
1.67
-3.0
-6.33
-3.0
1.0
-7.0
-2.33
-8.67
-5.0
4.0
-0.67
-9.67
-3.67
-3.67
-6.33
-7.67
-12.67
-5.33
-4.67
-1.0
4.67
10.33
17.67
14.33
-5.0
0.33
-3.0
-2.67
-5.67
-7.67
-1.67
-7.0
-7.0
-11.0
-4.33
-6.33
-8.33
-10.0
-7.67
-7.0
-4.33
-9.33
-5.67
-4.0
-12.67
-10.67
-8.33
0.33
-4.33
-8.0
-2.0
-1.67
0.67
2.0
20.0
7.33
8.67
4.0
0.33
1.33
-5.0
-12.0
-1.33
-2.67
3.33
1.0
-6.33
1.33
2.33
7.33
4.33
0.33
7.33
-3.67
4.0
4.67
-7.67
7.0
-5.33
0.33
4.0
5.67
6.67
9.0
8.67
5.0
4.0
4.67
11.33
17.0
16.67
17.33
36.33
66.67
89.33
88.67
31.0
23.33
8.67
21.0
-1.0
17.67
13.33
6.0
6.0
-1.33
-2.0
18.67
10.67
-5.67
11.67
10.67
12.67
5.0
12.0
4.0
10.0
8.0
9.0
6.67
16.67
12.67
15.0
29.0
30.67
15.67
23.33
-0.33
3.67
16.0
6.67
9.67
11.33
6.33
5.67
14.0
10.67
-1.33
7.0
2.67
6.67
4.0
4.0
8.33
-0.67
1.33
-0.33
-8.0
-2.67
4.33
4.67
10.67
1.33
-0.33
12.0
-0.67
8.0
4.33
1.33
6.0
2.33
3.0
-3.33
3.0
-0.67
2.33
5.0
-2.67
-1.67
1.33
6.33
0.67
6.67
-1.33
1.33
2.67
8.67
-4.33
3.67
2.0
5.67
2.33
-3.0
4.67
4.33
0.0
5.33
3.33
0.33
7.67
-1.67
5.67
4.33
0.33
-2.33
4.33
-6.33
-5.0
8.67
3.0

File: 9.25.txt
0.0
-55.67
75.33
14.33
2.0
1.33
-1.0
0.33
-0.67
-0.33
-0.33
0.67
-0.33
-0.67
2.67
-1.33
0.33
0.0
-2.67
0.0
-0.33
0.0
-1.67
1.67
5.67
2.33
2.0
11.0
-1.0
-0.33
2.0
0.33
1.0
-3.0
3.33
-1.33
3.0
6.0
5.33
0.33
1.33
1.67
5.33
8.0
1.0
3.67
-4.33
6.0
-0.33
3.67
4.67
6.0
2.33
2.67
2.33
2.67
1.0
-0.67
-2.33
-2.67
-0.67
3.0
9.33
-0.33
-1.67
-2.67
4.33
-4.67
1.67
3.0
2.33
-1.0
-2.33
-0.67
0.0
-4.0
3.33
-1.0
1.0
1.0
5.33
-4.33
3.33
0.0
-4.33
-3.0
4.67
-4.67
-1.33
-1.33
-1.67
1.0
-3.33
5.67
-5.33
0.0
-3.33
-1.0
4.0
-7.0
-2.33
-6.67
-2.0
1.0
-3.67
-3.67
-1.67
-4.67
-3.33
-3.67
-7.67
-5.33
-4.67
1.0
15.67
11.33
38.67
25.33
-6.0
-6.67
-4.0
-10.67
-6.67
-12.67
-8.67
-2.0
-6.0
-12.0
-9.33
-0.33
-1.33
-2.0
-3.67
-6.0
0.67
-7.33
-11.67
-1.0
-12.67
-7.67
-10.33
1.33
-10.33
-6.0
-1.0
-4.67
-5.33
17.0
22.0
12.33
3.67
1.0
6.33
2.33
-3.0
-9.0
-1.33
-6.67
-4.67
-4.0
-3.33
6.33
-3.67
4.33
6.33
-1.67
0.33
-2.67
6.0
3.67
2.33
8.0
1.67
6.33
1.0
7.67
3.67
5.0
11.67
8.0
-2.0
4.67
11.33
2.0
17.67
27.33
40.33
90.67
97.33
88.67
30.0
17.33
7.67
16.0
1.0
5.67
18.33
23.0
14.0
17.67
6.0
16.67
16.67
8.33
11.67
2.67
5.67
14.0
4.0
2.0
9.0
9.0
0.0
1.67
2.67
10.67
27.0
30.0
42.67
42.67
7.33
-4.33
-4.33
3.0
16.67
-6.33
10.33
11.33
-0.33
8.0
2.67
0.67
-8.0
-5.33
-6.33
-2.0
-1.0
0.33
4.33
4.33
-15.33
-8.0
-2.67
6.33
-3.33
10.67
-2.67
-10.33
-2.0
-2.67
6.0
16.33
4.33
5.0
-3.67
-4.0
7.67
1.0
6.33
2.33
4.0
11.33
2.33
1.33
-7.67
-3.33
7.67
1.67
6.33
2.67
-2.33
-1.33
8.67
-1.0
-2.33
-7.67
1.0
1.67
-3.67
1.0
-1.67
10.33
-3.67
1.67
0.33
6.67
4.33
4.33
-4.33
5.33
-1.33
0.0
6.67
-2.0

File: 11.75.txt
0.0
-97.67
-58.67
42.33
7.0
-1.67
1.0
-0.67
-0.67
1.67
-0.33
0.67
-0.33
-0.67
0.67
1.67
-0.67
4.0
0.33
-2.0
-0.33
0.0
-0.67
6.67
0.67
-5.67
-3.0
4.0
0.0
-0.33
0.0
1.33
-7.0
-1.0
-2.67
5.67
0.0
9.0
0.33
6.33
-3.67
1.67
1.33
-2.0
-3.0
-2.33
-0.33
2.0
-0.33
4.67
-1.33
1.0
-0.67
-0.33
6.33
-2.33
-1.0
0.33
-1.33
3.33
-1.67
-1.0
-3.67
0.67
-1.67
-0.67
-0.67
-5.67
0.67
2.0
1.33
-5.0
-2.33
-2.67
-1.0
-4.0
1.33
-1.0
1.0
0.0
0.33
-0.33
2.33
-2.0
0.67
-3.0
-1.33
-2.67
2.67
-0.33
0.33
0.0
-0.33
-1.33
-3.33
1.0
-3.33
-1.0
-3.0
-4.0
-4.33
-6.67
-2.0
1.0
-3.67
-3.67
3.33
-3.67
-2.33
-0.67
-7.67
-2.33
-3.67
4.0
-3.33
0.33
-1.33
-6.67
-8.0
-2.67
-7.0
-4.67
-3.67
-7.67
-1.67
-3.0
-5.0
4.0
-4.33
2.67
-7.33
-10.0
-1.67
-1.0
-7.33
-3.33
-6.67
-3.0
-16.67
-6.67
-4.33
0.33
-4.33
-7.0
-5.0
-6.67
0.67
14.0
47.0
25.33
8.67
3.0
-8.67
-9.67
-1.0
2.0
6.67
-6.67
-1.67
-7.0
6.67
6.33
-0.67
12.33
0.33
6.33
3.33
0.33
4.0
-5.33
-6.67
2.0
-0.33
13.33
7.0
10.67
2.67
4.0
5.67
1.0
0.0
1.67
6.33
13.0
17.67
50.33
129.33
216.67
289.33
225.67
89.0
28.33
4.67
11.0
3.0
6.67
14.33
9.0
3.0
-4.33
8.0
12.67
4.67
-7.67
7.67
1.67
13.67
11.0
14.0
23.0
8.0
5.0
2.0
6.67
-2.33
-3.33
11.0
6.0
-0.33
5.67
-0.67
-5.33
4.67
11.0
9.67
0.67
8.33
4.33
12.67
9.0
12.67
13.67
3.0
1.67
-1.33
0.0
-3.0
11.33
-0.67
-1.67
-9.33
-10.0
-6.67
8.33
-7.33
3.67
-5.67
16.67
10.0
11.33
13.0
4.33
2.33
-1.0
5.33
2.0
-1.33
7.0
-3.67
-5.67
4.0
0.33
3.33
-4.67
0.33
3.67
-1.33
3.67
10.33
12.67
9.67
7.67
4.67
6.0
8.67
-5.67
1.0
-1.33
-4.67
-2.0
1.33
2.33
6.33
-0.33
1.33
3.67
6.33
0.33
-2.33
5.33
1.67
-5.0
1.67
2.0

File: 12.0.txt
0.0
-95.67
3.33
3.33
-12.0
5.33
-1.0
0.33
-0.67
0.67
1.67
-0.33
0.67
0.33
-0.33
-0.33
2.33
-1.0
0.33
3.0
3.67
0.0
-10.67
2.67
3.67
1.33
2.0
4.0
2.0
4.67
-4.0
-0.67
4.0
-1.0
-0.67
14.67
2.0
2.0
12.33
6.33
8.33
2.67
6.33
12.0
6.0
-0.33
6.67
6.0
-0.33
2.67
4.67
-2.0
2.33
1.67
8.33
3.67
2.0
1.33
-2.33
-0.67
-0.67
0.0
1.33
5.67
-3.67
1.33
-2.67
1.33
3.67
1.0
5.33
1.0
1.67
-2.67
1.0
-1.0
-3.67
1.0
4.0
-1.0
2.33
0.67
1.33
0.0
-3.33
-3.0
-0.33
-2.67
0.67
0.67
0.33
-1.0
-7.33
4.67
-0.33
-4.0
-3.33
0.0
-2.0
-4.0
-1.33
-2.67
-6.0
0.0
0.33
-7.67
-5.67
-5.67
3.67
-1.67
-3.67
-4.33
-5.67
-8.0
-5.33
-1.67
-3.33
-4.67
-11.0
-5.67
-1.0
-6.67
-11.67
-12.67
-4.67
-3.0
-7.0
-9.0
-1.33
-1.33
-5.33
-13.0
-8.67
-9.0
-10.33
1.67
-4.67
0.0
-7.67
-7.67
-15.33
-2.67
-5.33
-9.0
2.0
-1.67
0.67
25.0
37.0
21.33
21.67
4.0
-2.67
2.33
-6.0
-10.0
-0.33
6.33
5.33
5.0
-3.33
2.33
-2.67
1.33
15.33
-2.67
3.33
-5.67
2.0
-2.33
-5.67
-2.0
-2.33
1.33
9.0
7.67
4.67
4.0
5.67
-5.0
-7.0
9.67
10.33
5.0
20.67
51.33
122.33
269.67
296.33
245.67
116.0
36.33
21.67
17.0
-4.0
2.67
10.33
8.0
7.0
6.67
11.0
6.67
2.67
6.33
3.67
0.67
12.67
5.0
6.0
-4.0
-8.0
12.0
4.0
-0.33
0.67
5.67
6.0
-1.0
4.67
5.67
-0.67
-8.33
2.67
3.0
-2.33
-2.33
9.33
9.33
11.67
13.0
11.67
3.67
-2.0
2.67
12.67
10.0
12.0
2.33
-2.67
-9.67
-6.33
-13.0
-1.67
4.33
-11.33
5.67
-4.67
-2.33
6.0
-1.67
12.0
10.33
3.33
-9.0
0.33
6.0
1.67
1.0
-3.67
0.33
1.0
-3.67
3.33
1.33
-1.67
1.67
-2.33
0.67
5.33
3.67
8.67
0.67
10.67
6.0
6.67
1.33
2.0
-0.33
-1.67
-5.0
1.33
0.33
-3.67
-0.33
-2.67
1.67
1.33
0.33
-6.33
0.33
1.67
-1.0
9.67
8.0