Folder: EDX-Concrete-Analysis/EDX Back Ups and Old Files/Spectra copy 3.3.23/Samples/High pH SF 25C 6d

Note: README.md
This is Anthony's repository for doing all sorts of Energy Dispersive X-ray Analysis on concrete samples.

File: 6.5.txt
0.0
6.33
63.67
23.67
5.0
1.67
0.33
0.0
0.0
-0.67
0.0
-0.67
-1.0
-1.33
0.67
0.67
0.33
0.0
4.0
9.0
3.0
-5.67
1.67
6.67
13.67
0.67
1.0
4.67
3.67
8.67
6.33
2.67
4.67
-2.0
4.67
3.33
11.33
2.0
-6.33
-3.33
3.33
2.0
6.33
-2.0
3.0
8.0
2.33
4.67
-2.0
5.33
-3.67
11.33
7.33
9.0
7.67
2.67
1.33
12.67
3.0
6.33
6.67
3.0
1.0
-1.33
-2.33
3.0
3.33
5.67
2.67
2.0
1.0
1.0
-0.67
-3.33
-1.33
0.67
0.67
2.33
-4.0
3.67
0.33
0.67
3.0
-1.0
0.67
8.0
5.0
3.67
1.0
3.33
3.0
2.67
2.33
-0.67
-1.0
-1.67
4.33
-0.33
-7.67
1.0
-1.0
3.67
-2.0
-7.0
-7.33
9.0
-5.33
-1.67
-4.0
0.33
-3.67
2.67
-6.0
-8.67
0.0
11.67
15.33
15.33
1.33
-2.33
2.67
-4.0
-3.33
9.0
0.0
-6.33
-3.67
-3.33
-4.33
-9.67
5.0
-7.67
2.0
5.67
0.33
3.0
-5.33
2.33
0.67
-3.33
-3.67
-2.67
1.33
2.67
-0.67
-0.33
9.33
5.0
7.0
5.33
14.67
12.67
3.33
4.0
4.33
0.0
8.0
8.0
8.33
-0.67
-2.0
14.0
9.67
-0.67
5.33
11.33
9.67
7.33
6.67
15.0
-7.33
0.67
15.0
11.67
9.67
13.0
6.67
9.67
13.0
9.0
2.67
9.67
14.33
26.33
31.33
31.67
41.0
67.33
114.0
95.0
31.33
9.33
15.33
2.0
9.33
7.33
10.33
14.33
11.67
4.67
2.0
6.0
11.33
13.67
1.67
15.67
15.0
11.33
8.33
12.0
0.67
11.33
7.33
11.33
11.33
15.0
18.0
19.67
15.0
28.67
9.33
-1.33
1.33
0.0
18.0
10.0
1.0
6.33
8.0
12.67
5.0
-2.33
3.67
3.67
5.33
8.0
-1.33
0.67
-2.0
9.67
-7.0
2.33
-1.33
3.33
8.0
12.0
8.0
6.67
7.33
12.67
12.33
3.33
16.67
1.33
10.0
26.0
3.0
-6.0
-6.67
2.0
7.33
9.0
11.0
9.33
-4.0
1.33
5.0
-2.33
10.33
-9.33
1.67
9.33
1.67
9.67
2.67
0.0
6.33
0.67
0.0
1.0
5.67
-6.0
-5.0
4.0
6.33
3.67
2.33
-0.67
1.67
6.33
6.0
0.33
4.33
1.0

File: 6.75.txt
0.0
39.33
65.67
-24.33
-5.0
-0.33
-0.67
0.0
0.0
0.33
0.0
-0.67
1.0
1.67
-0.33
1.67
0.33
1.0
-4.0
3.0
-1.0
2.33
3.67
1.67
5.67
7.67
1.0
0.67
1.67
2.67
6.33
4.67
-3.33
-2.0
13.67
4.33
7.33
5.0
3.67
-3.33
0.33
7.0
6.33
5.0
1.0
1.0
2.33
0.67
-1.0
6.33
0.33
1.33
6.33
11.0
0.67
6.67
2.33
6.67
-2.0
6.33
-4.33
4.0
4.0
0.67
-0.33
6.0
-3.67
0.67
3.67
2.0
0.0
0.0
3.33
0.67
5.67
-2.33
2.67
5.33
0.0
2.67
-1.67
1.67
1.0
2.0
2.67
2.0
1.0
4.67
2.0
2.33
-1.0
0.67
0.33
2.33
1.0
2.33
2.33
3.67
-5.67
1.0
-2.0
1.67
-1.0
-5.0
-0.33
4.0
-1.33
0.33
2.0
2.33
-6.67
-3.33
-1.0
-1.67
-5.0
15.67
21.33
16.33
3.33
-1.33
0.67
-5.0
-1.33
8.0
2.0
-2.33
0.33
-6.33
-2.33
-5.67
-1.0
-1.67
-9.0
-3.33
-3.67
1.0
1.67
-2.67
5.67
2.67
1.33
1.33
0.33
-0.33
0.33
-2.33
11.33
7.0
19.0
15.33
-0.33
5.67
0.33
2.0
8.33
10.0
9.0
14.0
-2.67
8.33
0.0
5.0
-0.33
-2.67
10.33
7.33
3.67
9.33
1.67
7.0
5.67
4.67
5.0
17.67
8.67
8.0
6.67
8.67
12.0
6.0
11.67
9.67
6.33
15.33
28.33
34.67
27.0
90.33
86.0
93.0
41.33
16.33
10.33
3.0
17.33
11.33
7.33
21.33
5.67
9.67
6.0
10.0
-0.67
8.67
1.67
13.67
1.0
6.33
4.33
16.0
9.67
12.33
4.33
1.33
6.33
13.0
23.0
16.67
23.0
34.67
6.33
-7.33
2.33
8.0
13.0
15.0
2.0
13.33
11.0
28.67
10.0
5.67
2.67
2.67
-10.67
5.0
-5.33
7.67
17.0
3.67
3.0
3.33
-5.33
1.33
8.0
2.0
4.0
13.67
10.33
4.67
6.33
-5.67
10.67
-3.67
4.0
-4.0
6.0
-1.0
2.33
5.0
11.33
6.0
10.0
2.33
3.0
7.33
1.0
5.67
7.33
-1.33
5.67
1.33
6.67
2.67
-0.33
0.0
3.33
-3.33
4.0
6.0
4.67
2.0
-1.0
8.0
3.33
0.67
3.33
10.33
4.67
7.33
4.0
0.33
-2.67
-1.0

File: 8.25.txt
0.0
53.33
16.67
-20.33
-5.0
2.67
1.33
0.0
1.0
-0.67
0.0
-0.67
0.0
-0.33
0.67
0.67
-0.67
0.0
5.0
0.0
0.0
-3.67
4.67
2.67
2.67
6.67
1.0
1.67
6.67
3.67
6.33
-2.33
3.67
3.0
3.67
3.33
7.33
-1.0
-2.33
0.67
-0.67
1.0
4.33
6.0
-1.0
1.0
0.33
6.67
1.0
2.33
-2.67
3.33
8.33
3.0
1.67
-0.33
-2.67
1.67
5.0
5.33
0.67
4.0
-2.0
-0.33
1.67
1.0
1.33
4.67
3.67
3.0
-2.0
0.0
2.33
1.67
0.67
-3.33
3.67
-3.67
1.0
3.67
1.33
1.67
3.0
0.0
1.67
5.0
4.0
2.67
4.0
2.33
-1.0
-2.33
2.33
-3.67
-3.0
-4.67
-2.67
2.67
3.33
1.0
2.0
-1.33
2.0
-5.0
-1.33
3.0
-6.33
-5.67
0.0
-3.67
-7.67
-2.33
-4.0
-1.67
8.0
15.67
28.33
8.33
2.33
0.67
6.67
3.0
-7.33
2.0
1.0
1.67
1.33
0.67
2.67
-9.67
4.0
-4.67
2.0
0.67
-2.67
-1.0
-0.33
-0.67
0.67
3.67
-1.67
8.33
3.33
2.67
1.33
-1.33
9.33
7.0
11.0
20.33
12.67
6.67
1.33
10.0
-0.67
-1.0
9.0
6.0
4.33
1.33
-3.0
13.0
4.67
0.33
2.33
2.33
0.67
13.33
-6.33
5.0
9.67
-7.33
10.0
4.67
11.67
7.0
8.67
9.67
22.0
5.0
7.67
11.67
18.33
22.33
16.33
23.67
49.0
74.33
102.0
84.0
46.33
8.33
4.33
1.0
12.33
0.33
5.33
16.33
9.67
-2.33
-2.0
14.0
15.33
3.67
5.67
14.67
17.0
4.33
10.33
11.0
19.67
14.33
7.33
9.33
5.33
18.0
30.0
24.67
20.0
19.67
11.33
-14.33
14.33
20.0
17.0
13.0
11.0
-2.67
-1.0
17.67
0.0
0.67
3.67
-2.33
4.33
9.0
7.67
-0.33
6.0
-5.33
7.0
4.33
-1.33
-1.67
1.0
-1.0
2.0
2.67
10.33
10.67
15.33
-2.67
8.67
1.33
4.0
5.0
0.0
-2.0
9.33
14.0
-0.67
-1.0
10.0
2.33
-5.0
3.33
2.0
7.67
13.33
3.67
1.67
3.33
10.67
-0.33
-3.33
-2.0
-2.67
1.67
3.0
4.0
5.67
6.0
-1.0
6.0
1.33
-0.33
6.33
5.33
3.67
2.33
-1.0
-1.67
-0.67
-2.0

File: 8.75.txt
0.0
-90.67
15.67
48.67
-4.0
1.67
1.33
1.0
0.0
-0.67
1.0
-0.67
-1.0
-1.33
-1.33
-1.33
0.33
0.0
6.0
4.0
3.0
1.33
1.67
13.67
0.67
6.67
5.0
-0.33
-1.33
5.67
8.33
5.67
4.67
-1.0
7.67
2.33
1.33
5.0
-3.33
-2.33
4.33
0.0
6.33
1.0
5.0
2.0
0.33
1.67
2.0
-1.67
6.33
7.33
-1.67
8.0
2.67
0.67
-5.67
2.67
-1.0
0.33
3.67
2.0
-1.0
-1.33
-3.33
1.0
1.33
2.67
6.67
4.0
-1.0
-2.0
-0.67
-3.33
2.67
-4.33
-2.33
-2.67
1.0
1.67
3.33
-2.33
1.0
-2.0
-0.33
2.0
3.0
-0.33
-3.0
2.33
5.0
-3.33
-4.67
3.33
4.0
-5.67
-1.67
0.67
-3.67
-3.0
-1.0
3.67
6.0
-5.0
-0.33
4.0
-3.33
1.33
-2.0
-2.67
-2.67
-3.33
-5.0
-1.67
2.0
17.67
34.33
12.33
6.33
-1.33
-3.33
4.0
2.67
-4.0
-1.0
1.67
-3.67
-9.33
-2.33
-4.67
1.0
0.33
2.0
-0.33
-7.67
-2.0
-6.33
-3.67
-7.33
-3.33
6.33
1.33
-5.67
1.67
-6.67
-4.33
15.33
10.0
18.0
11.33
13.67
10.67
5.33
5.0
9.33
-4.0
13.0
6.0
11.33
-2.67
-3.0
8.0
1.67
-4.67
15.33
3.33
-2.33
13.33
-2.33
3.0
-3.33
9.67
-3.0
10.67
14.67
6.0
9.67
7.67
18.0
1.0
13.67
8.67
16.33
11.33
19.33
28.67
53.0
105.33
92.0
94.0
37.33
19.33
10.33
6.0
-0.67
11.33
13.33
14.33
1.67
15.67
7.0
8.0
4.33
8.67
14.67
6.67
-1.0
9.33
4.33
5.0
-3.33
10.33
4.33
6.33
7.33
6.0
11.0
27.67
32.0
15.67
7.33
-11.33
6.33
2.0
9.0
23.0
9.0
6.33
9.0
12.67
2.0
5.67
3.67
-8.33
-0.67
18.0
8.67
-0.33
17.0
8.67
-5.0
1.33
-2.33
1.33
-2.0
0.0
-4.0
3.67
11.33
11.67
6.33
-6.67
0.67
8.33
4.0
-3.0
5.0
7.0
2.33
4.0
7.33
4.0
7.0
6.33
-1.0
-0.67
5.0
6.67
5.33
-4.33
0.67
1.33
5.67
4.67
4.67
-1.0
3.33
8.67
3.0
6.0
2.67
0.0
2.0
0.0
1.33
3.67
1.33
5.33
2.67
0.33
2.0
1.33
0.33
-2.0

File: 9.25.txt
0.0
52.33
46.67
-6.33
3.0
-0.33
0.33
1.0
1.0
1.33
1.0
0.33
-1.0
-1.33
-0.33
0.67
-0.67
0.0
0.0
-1.0
0.0
0.33
0.67
4.67
5.67
9.67
4.0
9.67
1.67
8.67
1.33
0.67
0.67
-2.0
0.67
3.33
0.33
9.0
0.67
-3.33
9.33
1.0
1.33
5.0
-2.0
4.0
-2.67
4.67
0.0
-5.67
3.33
7.33
-3.67
2.0
0.67
6.67
9.33
1.67
6.0
-0.67
-0.33
3.0
0.0
1.67
1.67
4.0
-2.67
2.67
2.67
1.0
4.0
0.0
2.33
-2.33
2.67
-0.33
2.67
0.33
-1.0
-0.33
1.33
-0.33
0.0
0.0
-0.33
0.0
3.0
0.67
1.0
1.33
1.0
1.67
-0.67
-0.67
-1.0
1.33
2.33
0.67
-1.67
-3.0
-4.0
3.67
-1.0
-6.0
-2.33
0.0
-7.33
0.33
-2.0
-1.67
-3.67
-2.33
-2.0
-0.67
12.0
16.67
25.33
5.33
4.33
-3.33
-6.33
-1.0
-4.33
7.0
-2.0
-0.33
-2.67
0.67
-2.33
-3.67
-7.0
0.33
1.0
6.67
-5.67
5.0
-1.33
-0.67
5.67
6.67
3.33
20.33
4.33
3.67
-5.67
3.67
8.33
12.0
26.0
26.33
9.67
-0.33
5.33
6.0
5.33
-6.0
2.0
0.0
-0.67
9.33
5.0
5.0
-5.33
-1.67
13.33
9.33
-0.33
14.33
5.67
0.0
6.67
1.67
6.0
11.67
5.67
8.0
11.67
3.67
16.0
7.0
-2.33
-0.33
15.33
14.33
31.33
36.67
34.0
83.33
109.0
94.0
33.33
12.33
0.33
0.0
3.33
14.33
0.33
8.33
13.67
-0.33
14.0
5.0
0.33
7.67
4.67
11.67
5.0
10.33
3.33
2.0
5.67
4.33
16.33
4.33
11.33
18.0
14.0
21.67
32.0
32.67
6.33
4.67
12.33
11.0
6.0
8.0
0.0
9.33
4.0
12.67
7.0
7.67
-8.33
8.67
13.33
0.0
-4.33
-2.33
-4.0
-0.33
-2.0
3.33
-6.33
-1.67
5.0
8.0
2.0
3.67
11.33
5.67
11.33
7.33
2.67
5.33
9.0
5.0
9.0
9.0
-1.67
5.0
5.33
1.0
10.0
-0.67
6.0
2.33
1.0
2.67
5.33
0.67
-0.33
5.33
-5.33
-3.33
1.67
0.0
-6.67
-4.33
-1.0
-1.0
1.67
-6.0
-5.0
4.0
-1.67
-0.33
-3.67
3.33
1.67
3.33
-1.0
1.33
2.33
-3.0

File: 9.75.txt
0.0
29.33
44.67
12.67
-6.0
3.67
-0.67
1.0
0.0
0.33
0.0
-0.67
-1.0
-1.33
-1.33
1.67
-0.67
-1.0
2.0
0.0
-1.0
-5.67
2.67
0.67
7.67
9.67
-3.0
2.67
9.67
7.67
7.33
8.67
-2.33
-1.0
1.67
-2.67
3.33
-2.0
1.67
1.67
-0.67
2.0
5.33
-1.0
-2.0
1.0
-1.67
0.67
6.0
0.33
-6.67
3.33
5.33
5.0
1.67
-5.33
3.33
5.67
1.0
12.33
2.67
3.0
0.0
-0.33
1.67
-3.0
1.33
4.67
-1.33
2.0
0.0
2.0
1.33
3.67
1.67
-2.33
-2.33
-2.67
0.0
-0.33
4.33
-1.33
0.0
-2.0
0.67
0.0
1.0
3.67
4.0
-0.67
-2.0
-0.33
0.33
-2.67
-1.0
0.33
0.33
-0.33
-7.67
-5.0
-3.0
3.67
2.0
-1.0
-2.33
-2.0
-8.33
-6.67
4.0
-0.67
-8.67
-0.33
-8.0
-0.67
5.0
20.67
26.33
13.33
1.33
-4.33
0.67
-1.0
-0.33
5.0
8.0
-4.33
-1.67
-7.33
0.67
-5.67
-1.0
0.33
-2.0
2.67
-4.67
-3.0
1.67
-1.67
5.67
2.67
-6.67
4.33
-0.67
0.67
-8.67
2.67
18.33
15.0
12.0
27.33
12.67
1.67
6.33
4.0
3.33
10.0
-1.0
7.0
9.33
2.33
2.0
6.0
6.67
-3.67
-3.67
7.33
3.67
3.33
-9.33
6.0
3.67
7.67
-1.0
1.67
15.67
1.0
-2.33
6.67
19.0
3.0
8.67
5.67
12.33
17.33
30.33
33.67
67.0
104.33
115.0
93.0
44.33
14.33
8.33
13.0
3.33
21.33
20.33
22.33
5.67
-0.33
6.0
10.0
10.33
4.67
8.67
16.67
10.0
10.33
8.33
12.0
11.67
4.33
-0.67
15.33
5.33
15.0
30.0
18.67
33.0
9.67
5.33
-1.33
7.33
8.0
12.0
15.0
0.0
9.33
13.0
16.67
-5.0
-0.33
-4.33
8.67
-4.67
16.0
-2.33
2.67
9.0
-3.33
-7.0
8.33
-5.33
9.33
1.0
-6.0
-7.0
-6.33
6.33
4.67
13.33
0.33
8.67
0.33
1.0
4.0
10.0
4.0
4.33
5.0
2.33
-1.0
5.0
2.33
-1.0
5.33
2.0
13.67
-0.67
-6.33
4.67
6.33
14.67
13.67
0.67
4.0
4.33
-2.33
7.0
1.0
2.67
-3.0
-4.0
7.0
-2.67
-0.33
4.33
5.33
1.67
0.33
0.0
4.33
0.33
1.0

File: 10.25.txt
0.0
-45.67
-2.33
9.67
-6.0
1.67
1.33
0.0
0.0
1.33
0.0
0.33
0.0
-1.33
-1.33
-0.33
1.33
0.0
-2.0
-1.0
-2.0
1.33
-0.33
-0.33
-1.33
1.67
-1.0
-2.33
-4.33
7.67
1.33
0.67
-0.33
-2.0
-3.33
3.33
-1.67
1.0
5.67
1.67
8.33
2.0
4.33
9.0
9.0
12.0
4.33
6.67
4.0
3.33
1.33
0.33
-2.67
4.0
7.67
1.67
2.33
8.67
-2.0
4.33
1.67
1.0
-1.0
1.67
-3.33
0.0
5.33
7.67
3.67
1.0
1.0
2.0
-2.67
-1.33
-1.33
0.67
-2.33
0.33
0.0
0.67
3.33
-1.33
1.0
-2.0
0.67
1.0
7.0
1.67
-1.0
2.33
2.0
1.67
-1.67
-1.67
-6.0
1.33
2.33
2.67
-0.67
5.0
-1.0
-0.33
-1.0
-8.0
-0.33
0.0
-7.33
-7.67
-4.0
-2.67
-6.67
-1.33
-3.0
1.33
0.0
11.67
18.33
16.33
12.33
-1.33
-1.33
8.0
-1.33
2.0
6.0
1.67
-1.67
-2.33
0.67
-0.67
-1.0
-1.67
-3.0
1.67
-5.67
5.0
-4.33
4.33
4.67
2.67
-1.67
2.33
10.33
-0.33
-7.67
7.67
11.33
18.0
19.0
18.33
5.67
6.67
6.33
11.0
7.33
16.0
10.0
1.0
2.33
17.33
-4.0
13.0
2.67
0.33
13.33
3.33
0.67
4.33
2.67
8.0
2.67
-2.33
2.0
14.67
7.67
20.0
12.67
7.67
12.0
3.0
26.67
13.67
16.33
28.33
22.33
38.67
55.0
108.33
134.0
121.0
47.33
31.33
15.33
-7.0
7.33
10.33
8.33
-1.67
13.67
14.67
9.0
6.0
13.33
15.67
6.67
20.67
2.0
12.33
5.33
-1.0
1.67
9.33
6.33
5.33
15.33
16.0
18.0
24.67
27.0
28.67
17.33
3.67
8.33
12.0
4.0
7.0
2.0
3.33
0.0
18.67
-4.0
4.67
9.67
1.67
0.33
11.0
-8.33
9.67
2.0
-0.33
-7.0
-0.67
-0.33
2.33
-9.0
-13.0
-5.0
6.67
4.33
3.67
1.33
10.33
12.67
0.33
3.0
-2.0
0.0
5.0
3.33
10.0
13.33
2.0
8.0
-1.67
-1.0
-1.67
-2.0
4.67
4.33
-5.33
-8.33
9.33
0.67
9.67
-3.33
-2.0
5.33
-5.33
2.0
11.0
6.67
1.0
-1.0
3.0
0.33
-1.33
-1.67
3.33
-1.33
4.33
-3.0
-3.67
1.33
-6.0

File: 12.25.txt
0.0
-78.67
65.67
-23.33
-5.0
2.67
-0.67
0.0
2.0
1.33
0.0
-0.67
-1.0
-1.33
0.67
0.67
-1.67
-3.0
6.0
2.0
0.0
3.33
0.67
-1.33
8.67
1.67
5.0
-4.33
2.67
-2.33
-1.67
-1.33
1.67
-1.0
0.67
9.33
3.33
0.0
-1.33
-6.33
0.33
3.0
1.33
4.0
-2.0
8.0
-0.67
-1.33
4.0
1.33
-2.67
7.33
3.33
1.0
0.67
-0.33
0.33
5.67
6.0
1.33
1.67
0.0
3.0
-0.33
3.67
7.0
-3.67
3.67
-3.33
-1.0
-2.0
3.0
-1.67
0.67
2.67
-2.33
-0.33
-3.67
1.0
4.67
3.33
-1.33
-2.0
4.0
-1.33
-3.0
4.0
-0.33
0.0
-0.67
-2.0
0.67
3.33
-0.67
6.0
0.33
-1.67
0.67
1.33
4.0
1.0
1.67
-5.0
-2.0
-0.33
5.0
-4.33
-1.67
-3.0
3.33
-1.67
0.67
3.0
-2.67
2.0
-7.33
-2.67
-0.67
2.33
-6.33
1.67
-3.0
-3.33
-1.0
5.0
3.67
-4.67
1.67
5.67
-0.67
2.0
-3.67
-2.0
-1.33
-7.67
-1.0
3.67
-0.67
6.67
-6.33
12.33
10.33
2.33
9.67
3.33
5.67
14.33
16.0
31.0
22.33
15.67
7.67
1.33
5.0
13.33
-2.0
0.0
-1.0
0.33
5.33
2.0
2.0
2.67
-8.67
-2.67
4.33
9.67
3.33
-4.33
-7.0
-7.33
6.67
9.0
-4.33
0.67
4.0
6.67
-2.33
10.0
1.0
0.67
-1.33
0.33
7.33
13.33
27.67
78.0
169.33
143.0
140.0
91.33
37.33
2.33
3.0
-6.67
6.33
6.33
10.33
-1.33
7.67
5.0
17.0
6.33
5.67
0.67
14.67
-1.0
3.33
6.33
-1.0
4.67
1.33
0.33
1.33
0.33
0.0
-1.0
0.67
7.0
5.67
8.33
-6.33
2.33
-2.0
5.0
8.0
6.0
1.33
7.0
21.67
-1.0
-1.33
5.67
-0.33
9.33
-2.0
-4.33
-1.33
1.0
-3.33
-6.0
3.33
1.67
3.33
7.0
-3.0
1.0
6.67
-3.67
0.67
14.33
-8.67
8.67
2.33
-1.0
2.0
7.0
1.0
4.33
4.0
-2.67
-3.0
3.0
-2.67
-12.0
3.33
4.0
3.67
3.33
0.67
-4.33
1.33
-0.33
1.67
-0.33
-1.0
2.33
0.67
6.0
6.0
4.67
4.0
2.0
1.0
3.33
1.67
3.33
1.33
0.67
7.33
-2.0
-0.67
-1.67
1.0

File: background.txt
0.0
1877.67
1062.33
248.33
39.0
4.33
0.67
0.0
0.0
0.67
0.0
0.67
1.0
1.33
1.33
1.33
2.67
3.0
4.0
5.0
9.0
9.67
8.33
9.33
6.33
7.33
10.0
10.33
9.33
8.33
9.67
9.33
10.33
13.0
9.33
7.67
7.67
11.0
11.33
11.33
8.67
8.0
6.67
9.0
8.0
9.0
10.67
8.33
8.0
9.67
11.67
6.67
7.67
6.0
7.33
7.33
7.67
5.33
7.0
5.67
7.33
6.0
7.0
7.33
8.33
5.0
7.67
3.33
5.33
6.0
6.0
5.0
6.67
5.33
4.33
6.33
5.33
6.67
7.0
4.33
4.67
6.33
5.0
6.0
6.33
4.0
3.0
3.33
5.0
3.67
5.0
5.33
5.67
6.67
6.0
5.67
5.67
5.33
9.67
6.0
7.0
5.33
10.0
12.0
8.33
6.0
12.33
11.67
10.0
9.67
12.67
12.33
12.0
12.67
13.0
13.33
13.67
14.67
13.67
15.33
12.33
13.0
13.33
9.0
11.0
14.33
13.67
16.33
12.33
18.67
15.0
16.67
16.0
18.33
21.67
14.0
15.33
16.67
14.33
14.33
16.67
11.67
12.67
14.33
17.67
16.33
11.67
17.0
16.0
13.67
13.33
16.33
16.67
13.0
12.67
16.0
13.0
14.0
12.67
12.67
16.0
12.0
14.33
23.67
26.67
16.67
13.33
15.67
32.33
45.0
24.33
17.33
15.0
11.33
12.33
14.0
13.33
12.33
10.0
17.0
17.33
17.33
15.67
15.67
13.67
14.33
20.0
20.67
18.0
19.0
29.67
32.67
27.67
27.0
22.67
20.67
25.67
22.67
25.33
22.33
24.0
19.0
22.67
23.33
24.33
23.33
24.0
22.67
28.67
28.0
26.33
22.67
27.67
29.67
27.67
29.0
35.0
30.33
29.0
27.33
33.67
38.33
27.67
31.0
27.0
27.0
28.0
27.67
32.0
21.33
33.0
30.33
29.33
26.33
29.67
21.0
29.33
22.33
23.0
25.33
27.0
24.67
26.33
21.67
23.0
21.0
24.0
20.33
18.67
21.33
17.67
22.67
14.33
19.67
16.0
16.0
14.0
17.0
15.67
12.0
16.67
15.0
12.0
12.67
16.0
11.67
11.0
12.33
9.67
17.33
14.33
10.67
12.33
11.33
11.33
13.0
11.67
10.33
10.0
7.0
7.33
12.0
12.0
6.0
9.67
10.33
8.67
7.67
7.33
5.67
8.0
8.67
7.67
9.0