Folder: EDX-Concrete-Analysis/EDX Back Ups and Old Files/Spectra copy 3.3.23/Samples/High pH BL 60C 2d

Note: README.md
This is Anthony's repository for doing all sorts of Energy Dispersive X-ray Analysis on concrete samples.

File: 6.75.txt
0.0
2.33
12.0
-1.0
-6.33
3.33
1.67
0.33
-0.33
1.67
-0.33
1.0
-0.33
0.33
1.0
0.0
0.33
0.33
-0.33
5.33
3.0
11.33
-0.33
-4.33
0.67
9.67
1.33
1.33
3.33
6.33
4.0
-1.67
2.0
3.67
2.0
6.0
6.33
4.0
8.67
1.33
3.67
-1.0
3.33
3.67
2.0
-2.33
4.33
7.0
-3.33
-3.33
4.0
5.67
7.67
-2.67
3.33
1.67
3.0
0.0
-0.67
3.67
2.33
4.33
4.67
4.0
-2.0
0.0
-0.33
5.67
3.33
6.67
4.33
2.33
2.0
4.0
6.0
2.33
-0.33
-0.67
1.0
-0.33
4.33
3.67
2.67
5.0
0.67
-2.67
2.33
2.0
3.67
-2.67
-0.33
0.0
0.67
1.33
2.33
-2.0
-2.0
-4.0
3.33
-0.33
9.67
-1.0
0.67
2.0
4.67
0.0
1.67
2.67
1.67
-2.33
-2.0
0.0
5.33
4.0
6.0
11.0
19.67
27.33
11.0
2.0
7.67
15.33
-1.67
9.33
4.67
2.0
-1.0
3.67
1.67
7.0
3.0
4.33
13.0
12.67
0.67
-0.67
3.0
-2.0
2.0
-1.67
6.67
-0.33
2.67
10.33
2.67
16.33
11.67
17.33
16.33
7.67
0.0
9.67
12.33
1.33
14.67
0.0
9.0
9.67
11.33
6.33
4.0
8.67
7.0
17.0
10.67
10.0
4.67
13.0
13.0
18.0
7.33
6.67
10.67
8.33
7.0
-2.0
9.67
3.0
5.0
17.67
19.67
15.67
8.33
17.33
17.67
24.67
45.0
84.67
77.33
76.33
40.33
20.67
11.67
7.67
10.33
2.67
7.33
4.0
9.0
4.67
16.33
4.33
17.0
15.0
17.0
16.0
15.0
9.0
3.33
5.67
18.0
20.0
15.67
4.0
15.0
15.67
9.67
17.67
23.67
26.67
-2.67
1.0
6.67
9.0
6.33
-0.33
7.0
10.0
10.67
5.67
6.67
5.0
4.67
14.33
10.33
-1.67
-4.0
4.0
1.67
-3.67
2.33
3.67
6.67
0.0
8.67
10.33
8.0
0.0
-0.33
2.33
12.0
2.67
5.33
-2.67
-3.0
0.67
-2.33
2.67
6.67
2.67
-1.33
2.67
8.33
5.33
-8.67
-6.33
-3.0
2.67
0.67
1.33
5.67
8.67
1.33
5.0
6.33
-2.0
2.67
2.67
1.67
3.33
8.67
-2.0
1.67
3.33
4.67
2.0
4.0
8.67
-0.33
-3.0
0.33
-0.67
1.33
7.33

File: 7.0.txt
0.0
143.33
4.0
-26.0
-1.33
3.33
1.67
-0.67
-0.33
-0.33
-0.33
1.0
-0.33
-0.67
-1.0
-2.0
-1.67
1.33
0.67
-1.67
7.0
1.33
1.67
-0.33
1.67
4.67
-1.67
6.33
12.33
7.33
-2.0
5.33
9.0
0.67
0.0
-4.0
1.33
2.0
4.67
-5.67
13.67
2.0
11.33
-1.33
2.0
-2.33
5.33
6.0
10.67
2.67
1.0
8.67
0.67
0.33
1.33
0.67
-4.0
-4.0
0.33
-4.33
-0.67
5.33
3.67
-2.0
2.0
-7.0
2.67
1.67
4.33
0.67
-0.67
1.33
-5.0
0.0
-1.0
1.33
-1.33
4.33
4.0
4.67
1.33
1.67
-1.33
0.0
4.67
-4.67
5.33
-5.0
2.67
-3.67
1.67
0.0
-4.33
-1.67
2.33
1.0
-1.0
-3.0
-1.67
-1.33
2.67
6.0
0.67
1.0
0.67
-2.0
0.67
1.67
-0.33
2.67
0.0
4.0
-0.67
6.0
15.0
16.0
15.67
7.33
16.0
-2.0
4.67
9.33
1.33
-1.67
5.67
3.0
4.0
5.67
0.67
0.0
15.0
7.33
13.0
7.67
4.67
7.33
12.0
0.0
3.0
9.33
1.67
5.67
6.67
7.33
2.67
2.33
9.67
6.33
11.33
19.67
8.0
4.67
7.33
6.33
10.67
10.0
5.0
5.67
11.33
11.33
9.0
7.67
8.0
18.0
11.67
11.0
0.67
4.0
8.0
14.0
-3.67
4.67
8.67
5.33
7.0
-2.0
13.67
4.0
6.0
10.67
17.67
12.67
17.33
21.33
20.67
22.67
45.0
86.67
90.33
70.33
42.33
17.67
7.67
2.67
12.33
8.67
12.33
-1.0
-1.0
12.67
3.33
15.33
5.0
10.0
14.0
9.0
22.0
19.0
10.33
11.67
0.0
15.0
6.67
3.0
19.0
17.67
29.67
36.67
28.67
13.67
0.33
11.0
2.67
12.0
14.33
6.67
21.0
5.0
15.67
9.67
17.67
8.0
5.67
8.33
8.33
-1.67
10.0
-16.0
5.67
-4.67
8.33
3.67
5.67
-3.0
-1.33
4.33
16.0
5.0
-5.33
4.33
10.0
10.67
4.33
-4.67
5.0
8.67
-7.33
-3.33
3.67
6.67
4.67
4.67
9.33
5.33
0.33
-3.33
-2.0
-3.33
3.67
2.33
5.67
-1.33
6.33
-2.0
7.33
3.0
2.67
-1.33
4.67
2.33
-0.33
-7.0
-0.33
4.33
4.67
-1.0
4.0
3.67
2.67
-1.0
3.33
6.33
2.33
2.33

File: 8.5.txt
0.0
59.33
-14.0
-31.0
4.67
2.33
-0.33
-0.67
-0.33
0.67
-0.33
1.0
1.67
0.33
0.0
2.0
2.33
0.33
-2.33
0.33
2.0
3.33
-2.33
2.67
1.67
3.67
-2.67
1.33
9.33
7.33
2.0
-1.67
-4.0
0.67
-2.0
6.0
9.33
6.0
1.67
-2.67
11.67
-2.0
1.33
-4.33
6.0
-7.33
2.33
-3.0
15.67
-0.33
3.0
0.67
10.67
-0.67
-1.67
0.67
0.0
2.0
0.33
-1.33
12.33
-4.67
0.67
2.0
-2.0
-2.0
1.67
5.67
-0.67
8.67
-1.67
-0.67
3.0
-2.0
2.0
2.33
-1.33
2.33
2.0
-2.33
-0.67
-1.33
3.67
2.0
-1.33
1.33
6.33
1.0
-1.33
4.33
-0.33
-2.0
-3.33
0.33
0.33
-2.0
2.0
2.0
-0.67
0.67
6.67
4.0
1.67
-1.0
2.67
2.0
-2.33
-2.33
-0.33
2.67
0.0
1.0
0.33
10.0
8.0
25.0
34.67
22.33
11.0
6.0
4.67
3.33
1.33
7.33
3.67
-2.0
5.0
2.67
4.67
7.0
4.0
6.33
15.0
-2.33
6.67
2.33
6.0
6.0
10.0
3.33
6.67
7.67
1.67
14.33
1.67
7.33
14.67
17.33
13.33
26.67
7.0
8.67
19.33
2.33
12.67
4.0
5.0
4.67
16.33
15.33
10.0
1.67
11.0
15.0
10.67
14.0
0.67
15.0
13.0
19.0
8.33
12.67
5.67
9.33
15.0
9.0
13.67
10.0
12.0
5.67
6.67
17.67
14.33
17.33
35.67
27.67
51.0
111.67
91.33
88.33
51.33
32.67
9.67
15.67
18.33
2.67
13.33
10.0
7.0
2.67
3.33
16.33
14.0
12.0
2.0
10.0
8.0
13.0
8.33
5.67
8.0
4.0
4.67
6.0
21.0
26.67
19.67
32.67
7.67
17.67
-0.67
6.0
5.67
11.0
3.33
13.67
-2.0
18.0
15.67
1.67
21.67
-2.0
-2.33
10.33
5.33
-1.67
5.0
3.0
3.67
7.33
4.33
3.67
12.67
0.0
2.67
9.33
2.0
-2.0
6.67
6.33
-1.0
14.67
15.33
0.33
-1.0
4.67
1.67
2.67
1.67
15.67
0.67
2.67
2.33
3.33
-1.67
-5.33
-1.0
5.67
-3.33
6.33
0.67
-0.33
5.33
6.0
-5.67
1.0
1.67
7.67
-4.33
2.33
3.67
-3.0
4.67
0.33
3.67
-4.0
3.0
-0.33
-0.33
0.0
-4.67
1.33
5.33
6.33

File: 9.5.txt
0.0
-11.67
-44.0
-30.0
-8.33
1.33
0.67
-0.67
-0.33
-0.33
-0.33
0.0
0.67
1.33
1.0
-1.0
1.33
-0.67
1.67
0.33
-2.0
6.33
3.67
5.67
-5.33
-3.33
-1.67
-0.67
1.33
2.33
6.0
0.33
-1.0
1.67
-2.0
1.0
0.33
10.0
1.67
0.33
6.67
2.0
2.33
6.67
9.0
-1.33
1.33
5.0
-0.33
-0.33
0.0
1.67
2.67
3.33
6.33
0.67
-1.0
0.0
2.33
3.67
1.33
5.33
-2.33
4.0
5.0
-3.0
8.67
4.67
-1.67
0.67
1.33
-0.67
-5.0
-1.0
4.0
3.33
-1.33
2.33
1.0
2.67
0.33
-0.33
3.67
1.0
-1.33
-1.67
-0.67
-1.0
4.67
5.33
-2.33
-2.0
-0.33
1.33
-1.67
2.0
0.0
3.0
0.33
1.67
7.67
3.0
2.67
7.0
6.67
2.0
-2.33
4.67
-3.33
0.67
-4.0
4.0
6.33
5.0
6.0
18.0
26.67
29.33
12.0
12.0
1.67
11.33
-1.67
1.33
-0.33
3.0
7.0
5.67
2.67
7.0
8.0
10.33
-1.0
0.67
-0.33
3.33
10.0
0.0
1.0
0.33
1.67
5.67
6.67
13.33
6.67
8.33
12.67
17.33
25.33
15.67
9.0
5.67
14.33
6.33
14.67
1.0
-1.0
6.67
5.33
12.33
12.0
3.67
9.0
3.0
4.67
9.0
11.67
7.0
12.0
2.0
13.33
5.67
7.67
10.33
6.0
4.0
5.67
4.0
11.0
13.67
10.67
11.67
15.33
25.33
19.67
30.67
55.0
94.67
135.33
119.33
59.33
11.67
19.67
14.67
11.33
14.67
4.33
14.0
0.0
15.67
8.33
6.33
13.0
2.0
15.0
8.0
18.0
9.0
10.33
15.67
-7.0
1.0
6.67
15.0
29.0
31.67
27.67
16.67
18.67
16.67
8.33
2.0
8.67
16.0
9.33
-9.33
19.0
13.0
1.67
19.67
13.67
4.0
10.67
18.33
5.33
-0.67
-2.0
-6.0
6.67
1.33
11.33
-9.33
3.67
-5.0
5.67
15.33
10.0
5.0
4.67
9.33
7.0
16.67
5.33
1.33
-2.0
9.67
-4.33
0.67
16.67
-0.33
-0.33
2.67
8.33
6.33
-0.67
-1.33
-1.0
7.67
1.67
10.33
6.67
4.67
3.33
5.0
4.33
5.0
-2.33
1.67
-3.33
-1.67
2.67
3.0
4.67
-1.67
4.67
-7.0
2.0
5.67
-0.33
1.0
3.33
-1.67
-5.67
5.33

File: 9.75.txt
0.0
25.33
-42.0
-36.0
7.67
1.33
0.67
0.33
0.67
-0.33
0.67
1.0
0.67
-0.67
0.0
1.0
-0.67
2.33
-1.33
3.33
1.0
0.33
-0.33
3.67
2.67
4.67
1.33
5.33
2.33
3.33
12.0
5.33
2.0
-1.33
7.0
2.0
6.33
3.0
5.67
2.33
3.67
0.0
4.33
6.67
6.0
4.67
0.33
5.0
2.67
0.67
-1.0
-0.33
0.67
0.33
1.33
4.67
3.0
-6.0
4.33
-3.33
4.33
0.33
-1.33
2.0
-4.0
-1.0
3.67
-1.33
2.33
0.67
1.33
3.33
0.0
1.0
-3.0
1.33
-1.33
1.33
1.0
-3.33
1.33
2.67
-4.33
0.0
6.67
-1.67
0.33
-4.0
3.67
1.33
0.67
0.0
-4.33
0.33
-1.67
5.0
0.0
5.0
4.33
-2.33
3.67
2.0
2.67
5.0
4.67
3.0
-1.33
1.67
1.67
-0.33
-2.0
5.0
7.33
5.0
3.0
11.0
27.67
14.33
9.0
0.0
8.67
3.33
0.33
5.33
7.67
1.0
8.0
10.67
6.67
5.0
4.0
5.33
14.0
9.67
5.67
3.33
6.0
4.0
8.0
-0.67
9.67
14.67
9.67
5.33
8.67
1.33
18.67
25.33
23.33
21.67
19.0
2.67
10.33
1.33
11.67
15.0
2.0
15.67
12.33
13.33
10.0
12.67
1.0
11.0
7.67
17.0
5.67
2.0
16.0
9.0
2.33
3.67
10.67
3.33
12.0
9.0
12.67
5.0
6.0
6.67
17.67
14.67
12.33
20.33
19.67
39.67
60.0
135.67
134.33
121.33
65.33
37.67
5.67
-0.33
8.33
6.67
6.33
0.0
3.0
11.67
-3.67
22.33
12.0
5.0
4.0
9.0
16.0
17.0
19.33
12.67
6.0
12.0
3.67
12.0
18.0
26.67
11.67
19.67
12.67
0.67
17.33
4.0
2.67
11.0
6.33
2.67
4.0
5.0
5.67
21.67
2.67
3.0
-0.33
1.33
2.33
4.33
1.0
-3.0
3.67
5.33
10.33
3.67
4.67
4.0
6.67
10.33
7.0
1.0
-1.33
11.33
8.0
12.67
-5.67
-5.67
-5.0
11.67
-1.33
-5.33
4.67
4.67
5.67
-1.33
1.33
5.33
4.33
5.67
3.0
3.67
8.67
1.33
9.67
-1.33
7.33
3.0
3.33
0.0
0.67
1.67
1.67
5.33
2.67
-5.0
-2.33
7.33
8.67
-3.0
-2.0
3.67
6.67
-1.0
1.33
-0.67
3.33
1.33

File: 10.0.txt
0.0
40.33
41.0
-15.0
13.67
2.33
0.67
-0.67
1.67
-0.33
-0.33
0.0
1.67
-0.67
-1.0
-1.0
2.33
2.33
5.67
-2.67
3.0
-1.67
7.67
6.67
-3.33
1.67
-1.67
2.33
4.33
4.33
-2.0
-4.67
5.0
5.67
5.0
-3.0
6.33
5.0
0.67
3.33
5.67
-2.0
2.33
2.67
10.0
-5.33
6.33
0.0
2.67
-5.33
0.0
7.67
4.67
0.33
8.33
1.67
-2.0
-4.0
5.33
3.67
6.33
-3.67
1.67
-1.0
-1.0
-3.0
2.67
-3.33
3.33
-4.33
-1.67
3.33
1.0
0.0
3.0
0.33
-1.33
0.33
0.0
-2.33
3.33
0.67
1.67
0.0
1.67
-3.67
1.33
2.0
0.67
0.33
0.67
2.0
5.67
0.33
0.33
2.0
2.0
-6.0
0.33
1.67
0.67
2.0
-1.33
6.0
5.67
3.0
2.67
-4.33
4.67
-1.33
0.0
4.0
2.33
-2.0
0.0
11.0
4.67
6.33
-1.0
2.0
13.67
3.33
1.33
0.33
7.67
4.0
1.0
6.67
1.67
4.0
4.0
3.33
8.0
-1.33
5.67
5.33
5.0
8.0
8.0
1.33
9.67
6.67
13.67
8.33
8.67
7.33
12.67
21.33
34.33
24.67
9.0
3.67
7.33
5.33
5.67
8.0
6.0
7.67
12.33
10.33
10.0
3.67
-2.0
4.0
8.67
1.0
6.67
8.0
11.0
-9.0
14.33
4.67
8.67
8.33
2.0
5.0
20.67
5.0
12.0
4.67
18.67
20.67
4.33
22.33
17.67
43.67
77.0
138.67
173.33
125.33
65.33
19.67
17.67
9.67
6.33
18.67
4.33
20.0
10.0
10.67
8.33
9.33
12.0
9.0
8.0
1.0
14.0
10.0
18.33
10.67
14.0
7.0
9.67
14.0
10.0
0.67
1.67
13.67
4.67
13.67
5.33
-8.0
0.67
3.0
2.33
10.67
2.0
4.0
15.67
19.67
0.67
0.0
4.67
16.33
-6.67
4.33
0.0
-5.0
8.67
7.33
9.33
6.67
7.67
0.0
10.67
8.33
7.0
7.0
15.67
15.33
4.0
16.67
9.33
-3.67
3.0
2.67
0.67
-2.33
5.67
11.67
3.67
8.67
5.33
7.33
3.33
-2.33
0.0
2.67
-0.33
2.33
4.67
7.67
6.33
-4.0
1.33
-3.0
-5.33
4.67
-1.33
7.33
2.67
-3.0
-2.33
2.33
1.67
-8.0
-1.0
-3.33
-4.33
-1.0
-6.67
-0.67
4.33
4.33

File: 10.25.txt
0.0
69.33
-8.0
-27.0
1.67
0.33
0.67
-0.67
-0.33
-0.33
-0.33
0.0
-0.33
-0.67
0.0
-1.0
0.33
-0.67
0.67
0.33
-1.0
8.33
6.67
1.67
-5.33
0.67
-5.67
-1.67
1.33
3.33
1.0
2.33
0.0
4.67
4.0
5.0
8.33
3.0
9.67
-0.67
3.67
0.0
6.33
2.67
5.0
0.67
-3.67
-1.0
7.67
1.67
6.0
3.67
-0.33
2.33
-1.67
-1.33
10.0
-3.0
0.33
4.67
-1.67
4.33
-1.33
-2.0
2.0
-3.0
4.67
0.67
2.33
5.67
-0.67
1.33
-5.0
3.0
1.0
7.33
-3.33
3.33
-2.0
-2.33
2.33
3.67
0.67
7.0
2.67
-3.67
-1.67
-4.0
2.67
-1.67
2.67
-2.0
-0.33
-2.67
-4.67
-1.0
1.0
-5.0
0.33
1.67
5.67
2.0
-2.33
-1.0
4.67
0.0
-0.33
-0.33
5.67
0.67
-3.0
3.0
4.33
1.0
8.0
5.0
3.67
11.33
6.0
2.0
8.67
17.33
-2.67
0.33
4.67
4.0
-2.0
8.67
7.67
12.0
3.0
15.33
1.0
4.67
7.67
6.33
4.0
3.0
20.0
0.33
17.67
7.67
2.67
6.33
8.67
12.33
12.67
24.33
30.33
26.67
16.0
0.67
14.33
5.33
4.67
4.0
12.0
10.67
17.33
9.33
10.0
2.67
-2.0
0.0
14.67
2.0
9.67
7.0
8.0
13.0
6.33
15.67
-1.33
16.33
6.0
15.0
-0.33
10.0
21.0
17.67
13.67
8.67
10.33
7.33
22.67
35.67
85.0
158.67
190.33
159.33
76.33
18.67
16.67
4.67
16.33
-5.33
10.33
-5.0
14.0
14.67
0.33
16.33
12.0
10.0
3.0
4.0
7.0
14.0
7.33
1.67
12.0
0.0
-2.33
8.0
6.0
16.67
4.67
-1.33
15.67
-1.33
1.33
-2.0
-7.33
11.0
9.33
8.67
8.0
5.0
10.67
4.67
15.67
13.0
1.67
6.33
-9.67
4.33
8.0
6.0
11.67
-1.67
7.33
5.67
9.67
-4.0
14.67
7.33
2.0
2.0
3.67
11.33
13.0
3.67
9.33
-12.67
1.0
-1.33
-4.33
-3.33
7.67
3.67
-1.33
2.67
1.33
2.33
-5.67
-4.33
-1.0
5.67
1.67
6.33
-4.33
2.67
7.33
1.0
1.33
8.0
-0.33
6.67
-1.33
-0.67
3.67
-6.0
2.67
9.33
4.67
-2.0
-1.0
1.67
0.67
-3.0
0.33
11.33
-0.67
-3.67

File: 11.75.txt
0.0
5.33
-58.0
-15.0
-3.33
0.33
-0.33
-0.67
-0.33
-0.33
-0.33
1.0
-0.33
2.33
1.0
-2.0
1.33
-1.67
1.67
-0.67
-2.0
7.33
-1.33
-0.33
-2.33
2.67
2.33
-0.67
6.33
2.33
-1.0
2.33
-1.0
3.67
0.0
-4.0
3.33
-2.0
2.67
5.33
4.67
-6.0
4.33
0.67
3.0
-1.33
4.33
0.0
2.67
1.67
-1.0
-0.33
3.67
-1.67
3.33
-2.33
4.0
-6.0
-1.67
6.67
5.33
2.33
-3.33
6.0
0.0
-6.0
6.67
-2.33
3.33
1.67
0.33
0.33
-4.0
0.0
0.0
0.33
1.67
1.33
1.0
-0.33
0.33
-3.33
0.67
1.0
-2.33
-1.67
2.33
-1.0
0.67
-0.67
-1.33
-2.0
-0.33
-1.67
-0.67
4.0
1.0
-2.0
-4.67
0.67
7.67
7.0
-1.33
-2.0
4.67
-1.0
-0.33
-1.33
10.67
-0.33
-5.0
-8.0
12.33
0.0
-2.0
1.0
1.67
2.33
3.0
6.0
-3.33
4.33
-2.67
1.33
8.67
6.0
2.0
3.67
3.67
3.0
3.0
7.33
7.0
7.67
4.67
8.33
11.0
3.0
0.0
8.33
0.67
1.67
9.67
1.33
6.67
14.33
26.67
19.33
47.33
24.67
18.0
14.67
6.33
15.33
4.67
0.0
-3.0
4.67
20.33
15.33
3.0
7.67
3.0
0.0
4.67
15.0
7.67
3.0
4.0
-1.0
-0.67
7.67
12.67
11.33
8.0
11.0
6.67
7.0
14.0
8.67
19.67
18.67
7.33
6.33
30.67
53.67
119.0
194.67
273.33
205.33
94.33
24.67
22.67
4.67
24.33
7.67
4.33
-4.0
10.0
7.67
9.33
19.33
6.0
9.0
12.0
7.0
12.0
7.0
4.33
15.67
12.0
2.0
4.67
5.0
9.0
22.67
10.67
7.67
12.67
-0.33
-1.67
-3.0
-1.33
-2.0
13.33
6.67
0.0
1.0
4.67
16.67
16.67
10.0
-1.33
4.33
8.33
9.33
3.0
-9.0
5.67
5.33
2.33
13.67
13.67
-8.0
16.67
7.33
1.0
3.0
5.67
5.33
7.0
0.67
2.33
-11.67
1.0
1.67
-3.33
-8.33
-1.33
2.67
-4.33
3.67
7.33
4.33
-4.67
-2.33
3.0
2.67
-3.33
7.33
-3.33
2.67
10.33
2.0
1.33
3.0
-3.33
-3.33
0.67
4.33
0.67
-2.0
2.67
0.33
0.67
-8.0
-3.0
-2.33
2.67
-2.0
-1.67
-1.67
1.33
-1.67