Folder: EDX-Concrete-Analysis/EDX Back Ups and Old Files/Spectra copy 3.3.23/Samples/High pH SF 25C 4d

Note: README.md
This is Anthony's repository for doing all sorts of Energy Dispersive X-ray Analysis on concrete samples.

File: 7.0.txt
0.0
-49.33
-38.33
8.67
-6.33
3.33
0.33
0.0
-1.0
-0.33
-0.33
-0.33
0.67
-0.67
-0.33
-0.33
-1.33
0.33
3.67
1.0
4.67
-6.0
0.0
2.33
3.67
1.0
1.67
5.0
9.67
3.33
3.33
0.67
-1.67
3.67
-1.0
5.67
9.33
2.0
2.67
2.67
-1.67
-0.33
-5.0
5.33
-0.33
5.0
3.33
2.33
3.0
3.67
4.0
5.67
2.67
-0.33
4.33
3.0
0.33
-2.33
4.0
2.67
7.0
3.33
1.33
6.67
8.33
1.33
-0.67
1.0
-1.33
-1.67
2.33
2.67
-1.67
-0.67
0.0
4.0
-2.33
1.0
3.0
6.67
2.67
-0.33
-1.67
-1.67
-0.67
9.0
3.67
1.33
3.67
-4.33
-2.0
-4.67
-2.33
-2.33
-0.33
1.0
0.67
-1.0
-2.0
-4.67
0.33
-1.33
-2.0
-6.0
-3.33
-2.67
-0.67
0.67
-6.0
-5.33
-5.0
-7.67
-3.67
-2.0
-0.67
10.33
29.67
16.67
0.67
-1.0
-10.33
-4.33
0.0
-0.33
2.0
-3.67
8.0
-8.67
-3.0
-15.67
1.33
-2.67
-7.0
-1.0
-2.67
-2.33
-9.0
-0.33
-0.67
-6.0
-5.0
1.33
-8.67
-8.0
-6.0
1.33
-1.0
18.67
5.67
1.33
-5.0
13.0
1.0
-4.33
12.33
3.67
2.67
3.67
8.0
7.67
10.0
2.33
4.33
18.33
3.33
0.67
1.33
18.0
3.33
23.67
11.0
0.0
5.0
-4.0
14.33
2.0
11.67
12.0
8.33
13.0
7.0
3.33
-0.67
14.33
9.67
19.67
38.33
66.0
91.67
94.33
44.33
15.33
11.33
0.67
11.0
9.0
8.0
5.0
7.67
10.67
15.0
10.33
7.0
3.67
9.67
5.67
1.67
4.67
6.0
1.67
0.33
21.33
10.33
2.67
7.0
10.33
13.33
46.67
35.33
8.67
1.33
11.0
11.67
1.33
-8.33
9.67
2.33
-4.67
3.0
9.33
5.33
1.67
6.0
-9.0
8.0
4.0
10.0
4.33
3.0
5.33
7.67
-4.67
9.67
3.67
5.33
-3.67
0.33
9.33
3.67
6.67
11.0
-1.67
1.0
2.33
6.67
-6.33
-0.67
6.0
11.0
-7.67
0.33
7.33
-1.0
3.33
0.0
-3.67
5.67
5.33
1.0
0.0
14.0
2.33
9.0
10.33
-4.0
5.0
-1.0
0.33
1.0
11.33
0.67
3.33
3.33
2.67
-1.33
-1.0
-0.67
2.33
1.67
4.33
-2.67
0.33
-1.0
4.0

File: 7.5.txt
0.0
89.67
-27.33
-19.33
4.67
4.33
0.33
0.0
-1.0
-0.33
-0.33
0.67
0.67
0.33
-0.33
-3.33
3.67
-1.67
-1.33
-1.0
4.67
3.0
9.0
-0.67
5.67
-1.0
0.67
0.0
8.67
2.33
-1.67
2.67
4.33
1.67
-7.0
3.67
7.33
0.0
-1.33
5.67
2.33
-0.33
-5.0
3.33
-2.33
5.0
2.33
-3.67
0.0
-0.33
6.0
0.67
-2.33
1.67
3.33
0.0
2.33
-0.33
0.0
1.67
2.0
5.33
8.33
1.67
-0.67
5.33
1.33
4.0
1.67
-1.67
3.33
-1.33
0.33
0.33
0.0
1.0
3.67
0.0
0.0
-2.33
-3.33
2.67
6.33
-1.67
-1.67
1.0
0.67
0.33
-3.33
4.67
-3.0
-4.67
-1.33
0.67
-1.33
3.0
-5.33
-3.0
3.0
-6.67
-2.67
-2.33
-1.0
-3.0
-0.33
-9.67
-1.67
-6.33
-6.0
-4.33
-3.0
-4.67
-3.67
-6.0
7.33
14.33
10.67
11.67
-0.33
-1.0
0.67
-0.33
-5.0
-0.33
-6.0
0.33
0.0
-3.67
-8.0
-10.67
-4.67
1.33
-3.0
-2.0
5.33
4.67
-6.0
2.67
-3.67
-10.0
-5.0
2.33
-2.67
-4.0
2.0
-4.67
-7.0
18.67
4.67
9.33
2.0
7.0
6.0
-5.33
2.33
10.67
2.67
2.67
18.0
3.67
9.0
10.33
7.33
4.33
4.33
8.67
16.33
8.0
1.33
8.67
9.0
7.0
-1.0
-3.0
10.33
16.0
3.67
13.0
12.33
8.0
9.0
6.33
9.33
29.33
22.67
20.67
42.33
80.0
109.67
76.33
48.33
19.33
16.33
-1.33
23.0
9.0
5.0
5.0
12.67
12.67
9.0
14.33
11.0
13.67
6.67
10.67
-6.33
4.67
6.0
4.67
7.33
14.33
5.33
7.67
17.0
17.33
32.33
20.67
24.33
17.67
19.33
7.0
1.67
11.33
2.67
3.67
8.33
5.33
10.0
12.33
17.33
6.67
18.0
-10.0
1.0
-4.0
3.0
4.33
3.0
-0.67
0.67
-4.67
3.67
-1.33
1.33
-1.67
7.33
5.33
1.67
-0.33
4.0
5.33
-2.0
-3.67
-2.33
-0.33
-4.67
5.0
0.0
-5.67
7.33
0.33
9.0
-3.67
2.0
-5.67
2.67
3.33
-8.0
5.0
0.0
-0.67
8.0
2.33
-1.0
0.0
1.0
2.33
3.0
0.33
-0.33
3.33
-1.67
6.67
0.67
-1.0
-1.67
4.33
3.67
4.33
2.33
1.33
7.0
1.0

File: 7.25.txt
0.0
38.67
-13.33
-8.33
12.67
3.33
0.33
1.0
-1.0
0.67
0.67
-0.33
0.67
0.33
-0.33
-0.33
0.67
1.33
-2.33
0.0
3.67
4.0
6.0
1.33
2.67
2.0
-1.33
-4.0
2.67
0.33
-0.67
3.67
8.33
2.67
-3.0
-5.33
3.33
0.0
-1.33
-0.33
7.33
5.67
2.0
0.33
-1.33
0.0
2.33
-1.67
0.0
3.67
13.0
8.67
6.67
1.67
-2.67
0.0
0.33
1.67
4.0
4.67
5.0
3.33
5.33
2.67
3.33
-1.67
2.33
9.0
0.67
-2.67
1.33
-3.33
-5.67
3.33
5.0
2.0
1.67
4.0
-3.0
-0.33
-1.33
4.67
1.33
7.33
-0.67
5.0
0.67
1.33
-2.33
1.67
1.0
-0.67
-0.33
0.67
0.67
-1.0
-2.33
4.0
-3.0
1.33
-5.67
-1.33
-6.0
-3.0
3.67
-3.67
1.33
-3.33
-10.0
0.67
-3.0
5.33
-6.67
-3.0
1.33
9.33
21.67
13.67
-2.33
-5.0
-3.33
-9.33
0.0
-0.33
-5.0
-1.67
6.0
-0.67
2.0
-11.67
4.33
-2.67
0.0
-11.0
0.33
1.67
2.0
1.67
-0.67
-8.0
-1.0
-2.67
-1.67
-2.0
-5.0
-3.67
-4.0
6.67
19.67
14.33
5.0
8.0
2.0
0.67
3.33
1.67
3.67
9.67
7.0
3.67
7.0
2.33
12.33
-0.67
11.33
-4.33
6.33
11.0
-1.67
11.67
9.0
-2.0
-4.0
-4.0
3.33
11.0
2.67
8.0
5.33
3.0
11.0
11.33
5.33
14.33
20.67
21.67
47.33
59.0
84.67
66.33
54.33
0.33
13.33
10.67
12.0
8.0
8.0
19.0
0.67
-0.33
20.0
0.33
5.0
14.67
-3.33
-0.33
3.67
6.67
8.0
-1.33
14.33
8.33
1.33
8.67
12.0
7.33
25.33
23.67
37.33
30.67
15.33
13.0
14.67
3.33
-0.33
17.67
3.33
3.33
3.0
5.33
6.33
3.67
8.0
-5.0
2.0
-4.0
1.0
-1.67
-5.0
-4.67
11.67
-9.67
6.67
-6.33
2.33
-8.67
5.33
6.33
3.67
-1.33
2.0
-8.67
1.0
-1.67
0.67
5.67
4.33
0.0
7.0
-2.67
-0.67
-2.67
3.0
0.33
0.0
-1.67
1.67
0.33
-3.0
1.0
-1.0
3.33
13.0
2.33
-1.0
1.0
5.0
9.33
10.0
2.33
10.67
-0.67
-1.67
9.67
-1.33
-1.0
3.33
-1.67
-1.33
4.33
2.33
6.33
-1.0
6.0

File: 9.0.txt
0.0
15.67
46.67
3.67
10.67
0.33
-0.67
0.0
-1.0
-0.33
0.67
-0.33
0.67
-0.67
0.67
-2.33
-0.33
3.33
0.67
5.0
3.67
0.0
5.0
1.33
1.67
5.0
-2.33
3.0
7.67
4.33
-1.67
0.67
-0.67
4.67
-8.0
5.67
2.33
1.0
0.67
1.67
-1.67
-0.33
-2.0
7.33
7.67
4.0
-2.67
-1.67
1.0
-1.33
-2.0
1.67
-1.33
4.67
-3.67
1.0
-0.67
-0.33
5.0
-2.33
3.0
2.33
-0.67
2.67
-0.67
3.33
0.33
4.0
-0.33
-2.67
3.33
1.67
-6.67
0.33
3.0
2.0
-1.33
6.0
1.0
11.67
4.67
4.67
-2.67
-1.67
-2.67
5.0
1.67
-0.67
-1.33
-1.33
-3.0
-1.67
-2.33
-0.33
-2.33
6.0
-4.33
-4.0
0.0
8.33
-3.67
-3.33
-2.0
-2.0
-1.33
-2.67
-3.67
-3.33
-8.0
-4.33
-4.0
-9.67
-8.67
-5.0
3.33
12.33
25.67
19.67
6.67
-1.0
-5.33
-6.33
-2.0
-0.33
-7.0
-4.67
3.0
1.33
-3.0
-10.67
-2.67
-0.67
1.0
-4.0
-2.67
-1.33
-2.0
-2.33
0.33
-12.0
1.0
-11.67
-3.67
-2.0
4.0
-5.67
1.0
22.67
18.67
5.33
7.0
8.0
14.0
5.67
1.33
10.67
1.67
8.67
4.0
3.67
7.0
8.33
-0.67
8.33
11.33
11.67
18.33
7.0
0.33
9.67
5.0
3.0
-2.0
7.0
16.33
14.0
9.67
6.0
12.33
2.0
13.0
10.33
10.33
19.33
10.67
28.67
40.33
89.0
118.67
99.33
53.33
19.33
12.33
3.67
19.0
2.0
1.0
12.0
4.67
6.67
20.0
4.33
3.0
15.67
3.67
14.67
5.67
10.67
10.0
11.67
4.33
4.33
-1.67
3.67
1.0
3.33
33.33
36.67
39.33
22.67
4.33
4.0
9.67
8.33
0.67
18.67
11.33
-0.67
22.0
13.33
25.33
-4.33
9.0
-1.0
12.0
-7.0
3.0
6.33
-4.0
-3.67
-1.33
3.33
3.67
-13.33
7.33
3.33
12.33
-0.67
5.67
1.67
3.0
-1.67
9.0
0.33
-2.33
-1.33
-0.67
-1.0
2.0
3.33
2.33
2.33
7.0
6.33
-7.0
1.33
-0.33
-2.67
-3.0
4.0
13.0
5.33
2.0
7.33
3.0
6.0
-4.0
-0.67
-1.0
8.33
2.67
1.33
0.33
-1.33
0.67
-1.0
1.33
1.33
3.67
6.33
3.33
2.33
-5.0
0.0

File: 9.25.txt
0.0
107.67
-6.33
-7.33
-4.33
0.33
0.33
0.0
0.0
-0.33
-0.33
0.67
-0.33
-0.67
0.67
-1.33
-2.33
1.33
0.67
2.0
0.67
7.0
2.0
-1.67
10.67
0.0
-2.33
-2.0
6.67
8.33
-8.67
5.67
2.33
2.67
-5.0
4.67
9.33
-2.0
0.67
5.67
2.33
-6.33
-1.0
7.33
5.67
6.0
-4.67
3.33
1.0
5.67
4.0
6.67
4.67
-2.33
2.33
5.0
0.33
-2.33
2.0
-0.33
6.0
4.33
4.33
-0.33
3.33
0.33
3.33
2.0
-1.33
-4.67
2.33
-1.33
-1.67
1.33
1.0
0.0
-1.33
3.0
-2.0
3.67
1.67
9.67
-0.67
-2.67
5.33
5.0
0.67
-0.67
-1.33
-0.33
-5.0
-3.67
0.67
1.67
-2.33
1.0
-0.33
2.0
-1.0
-2.67
-4.67
-7.33
-4.0
-3.0
-7.33
-6.67
-4.67
-7.33
-9.0
-3.33
-1.0
-5.67
0.33
-7.0
4.33
3.33
14.67
19.67
0.67
-4.0
0.67
-2.33
-1.0
-7.33
-9.0
-6.67
6.0
-8.67
3.0
-9.67
3.33
-7.67
-7.0
-2.0
0.33
-1.33
-5.0
2.67
7.33
-11.0
-3.0
-3.67
-5.67
-1.0
-4.0
-0.67
-3.0
15.67
14.67
6.33
-5.0
9.0
8.0
-0.33
7.33
2.67
10.67
10.67
9.0
1.67
8.0
5.33
-0.67
8.33
0.33
-0.33
0.33
7.0
3.33
7.67
8.0
16.0
-2.0
5.0
6.33
7.0
3.67
10.0
1.33
4.0
5.0
13.33
18.33
12.33
17.67
22.67
55.33
99.0
95.67
108.33
71.33
23.33
6.33
5.67
10.0
2.0
16.0
15.0
-1.33
7.67
14.0
-2.67
16.0
9.67
23.67
6.67
-0.33
7.67
8.0
8.67
6.33
10.33
10.33
6.67
8.0
20.33
10.33
24.67
24.33
23.67
5.33
6.0
0.67
12.33
-0.33
2.67
11.33
5.33
13.0
-7.67
4.33
-9.33
9.0
-7.0
-1.0
-11.0
15.0
3.33
0.0
-2.67
11.67
-0.67
7.67
-2.33
10.33
-2.67
12.33
10.33
6.67
-0.33
8.0
8.33
-4.0
-4.67
-6.33
3.67
-2.67
2.0
5.0
0.33
-0.67
8.33
15.0
2.33
7.0
-2.67
-6.33
7.33
-5.0
8.0
6.0
-3.67
12.0
5.33
1.0
4.0
-2.0
7.33
1.0
3.33
8.67
-3.67
-3.67
0.67
-2.33
3.0
-0.67
3.33
4.67
4.33
-2.67
3.33
-3.0
2.0

File: 10.0.txt
0.0
-17.33
-97.33
-16.33
2.67
1.33
1.33
1.0
-1.0
0.67
-0.33
-0.33
0.67
0.33
0.67
-3.33
2.67
2.33
2.67
0.0
1.67
-4.0
6.0
-3.67
2.67
-4.0
0.67
-2.0
6.67
8.33
-4.67
6.67
7.33
0.67
-4.0
7.67
5.33
10.0
-3.33
2.67
0.33
-2.33
-7.0
6.33
-1.33
9.0
5.33
-0.67
2.0
1.67
0.0
2.67
1.67
-2.33
2.33
4.0
-5.67
0.67
0.0
-0.33
7.0
1.33
6.33
-0.33
0.33
1.33
-1.67
2.0
0.67
-5.67
-1.67
0.67
-5.67
1.33
1.0
1.0
2.67
3.0
2.0
-1.33
-0.33
1.67
-1.67
1.33
0.33
0.0
-1.33
0.33
-4.33
-1.33
-3.0
-6.67
-5.33
1.67
-1.33
1.0
-3.33
0.0
-5.0
-0.67
-2.67
-1.33
-4.0
-4.0
-0.33
-8.67
-1.67
-0.33
-9.0
-0.33
-2.0
-7.67
-1.67
-1.0
-0.67
17.33
32.67
27.67
1.67
-1.0
-0.33
2.67
-7.0
-4.33
-9.0
-3.67
5.0
2.33
-8.0
-9.67
-6.67
3.33
0.0
-3.0
7.33
-0.33
5.0
-6.33
3.33
-5.0
-4.0
-7.67
-10.67
-3.0
-1.0
-1.67
0.0
14.67
13.67
16.33
-3.0
4.0
12.0
-5.33
-6.67
-1.33
1.67
5.67
4.0
-0.33
4.0
5.33
-0.67
13.33
10.33
0.67
5.33
8.0
11.33
-5.33
2.0
12.0
-2.0
-2.0
15.33
8.0
-3.33
10.0
13.33
-4.0
24.0
10.33
11.33
22.33
22.67
27.67
53.33
89.0
118.67
104.33
65.33
21.33
17.33
-3.33
21.0
15.0
13.0
15.0
6.67
4.67
23.0
12.33
6.0
-0.33
7.67
-0.33
-0.33
3.67
0.0
7.67
-0.67
9.33
0.33
0.67
18.0
23.33
22.33
29.67
31.33
27.67
21.33
0.0
14.67
-0.67
-2.33
12.67
-1.67
1.33
8.0
10.33
6.33
2.67
0.0
-5.0
15.0
1.0
5.0
-11.67
-6.0
1.33
4.67
0.33
2.67
-12.33
14.33
-0.67
2.33
8.33
5.67
-0.33
6.0
-3.67
0.0
4.33
-1.33
-5.33
3.33
4.0
1.0
1.33
-1.67
-3.67
0.0
-3.67
-7.0
-5.67
0.67
0.33
1.0
3.0
5.0
2.33
3.0
5.33
2.0
0.0
1.0
12.33
0.0
10.33
1.67
-4.67
-7.67
0.67
5.67
1.0
-1.67
1.33
1.67
6.33
-2.67
2.33
-1.0
4.0

File: 11.0.txt
0.0
32.67
7.67
-8.33
4.67
1.33
-0.67
1.0
-1.0
-0.33
-0.33
-0.33
-0.33
-0.67
0.67
-0.33
-0.33
2.33
-1.33
-1.0
0.67
-2.0
2.0
-2.67
7.67
-6.0
-0.33
0.0
2.67
7.33
-0.67
7.67
1.33
4.67
-11.0
6.67
8.33
-2.0
3.67
0.67
1.33
-7.33
0.0
-0.67
5.67
1.0
3.33
-0.67
2.0
2.67
1.0
3.67
2.67
-0.33
-4.67
1.0
-2.67
-2.33
0.0
-1.33
4.0
0.33
1.33
-1.33
1.33
-2.67
2.33
-1.0
-2.33
4.33
0.33
1.67
-5.67
4.33
3.0
0.0
3.67
2.0
-2.0
0.67
-1.33
3.67
1.33
-0.67
-2.67
0.0
4.67
-1.67
-0.33
-0.33
-2.0
-0.67
-4.33
0.67
0.67
3.0
-0.33
-3.0
-4.0
-4.67
-1.67
1.67
-5.0
-6.0
-2.33
-3.67
-4.67
-1.33
-6.0
-1.33
-8.0
1.33
-5.67
-2.0
0.33
41.33
29.67
29.67
2.67
-2.0
-3.33
-4.33
6.0
0.67
0.0
-2.67
2.0
-1.67
5.0
-9.67
-0.67
-0.67
-5.0
-8.0
2.33
6.67
9.0
5.67
-2.67
3.0
-5.0
0.33
-5.67
0.0
-4.0
-0.67
5.0
28.67
15.67
12.33
1.0
4.0
2.0
1.67
6.33
10.67
4.67
9.67
13.0
2.67
4.0
1.33
5.33
8.33
9.33
4.67
9.33
15.0
17.33
15.67
6.0
0.0
-3.0
6.0
6.33
9.0
8.67
13.0
3.33
19.0
14.0
4.33
21.33
22.33
21.67
33.67
65.33
123.0
158.67
136.33
75.33
21.33
13.33
-0.33
29.0
2.0
7.0
29.0
10.67
-1.33
24.0
9.33
9.0
6.67
9.67
5.67
2.67
19.67
3.0
10.67
3.33
12.33
2.33
4.67
10.0
6.33
22.33
25.67
36.33
22.67
2.33
10.0
8.67
5.33
0.67
5.67
12.33
8.33
2.0
6.33
8.33
2.67
1.0
7.0
6.0
-1.0
3.0
0.33
-6.0
2.33
3.67
0.33
-3.33
-9.33
7.33
2.33
7.33
4.33
6.67
1.67
8.0
4.33
5.0
-3.67
1.67
5.67
5.33
-9.0
3.0
-1.67
-5.67
3.33
6.0
5.33
4.0
1.33
-7.33
11.33
-1.0
6.0
0.0
3.33
4.0
2.33
5.0
1.0
6.0
9.33
-4.0
1.33
2.67
-0.67
0.33
1.67
-1.33
10.0
-5.67
-4.67
0.67
0.33
-3.67
2.33
1.0
2.0

File: 12.0.txt
0.0
45.67
-15.33
1.67
2.67
2.33
0.33
0.0
-1.0
-0.33
-0.33
0.67
-0.33
-0.67
-0.33
-1.33
-0.33
1.33
1.67
3.0
0.67
-4.0
3.0
-0.67
7.67
3.0
-0.33
-8.0
5.67
8.33
-3.67
2.67
-2.67
6.67
-6.0
6.67
-2.67
-4.0
5.67
0.67
-2.67
-6.33
-4.0
6.33
2.67
-2.0
8.33
1.33
-1.0
-2.33
3.0
0.67
-5.33
-2.33
5.33
6.0
-2.67
5.67
6.0
-0.33
6.0
-1.67
8.33
-0.33
-2.67
4.33
1.33
0.0
-1.33
-0.67
3.33
-1.33
-0.67
0.33
5.0
3.0
3.67
8.0
-1.0
1.67
4.67
2.67
-1.67
-4.67
-1.67
0.0
-0.33
2.33
-0.33
1.67
-1.0
-1.67
-2.33
-1.33
-3.33
-2.0
-2.33
4.0
-5.0
-0.67
-3.67
-3.33
-5.0
0.0
-4.33
-4.67
1.33
-2.33
-9.0
3.67
-2.0
-0.67
-1.67
-7.0
-3.67
-4.67
-3.33
-5.33
-5.33
0.0
-7.33
-3.33
0.0
-4.33
-6.0
0.33
1.0
-3.67
-9.0
-8.67
4.33
0.33
-3.0
-12.0
0.33
-0.33
3.0
0.67
0.33
0.0
-8.0
-1.67
-11.67
7.0
-4.0
5.33
12.0
16.67
18.67
26.33
12.0
10.0
7.0
-3.33
15.33
9.67
7.67
5.67
12.0
2.67
1.0
7.33
3.33
4.33
1.33
-2.33
17.33
13.0
9.33
1.67
11.0
4.0
9.0
5.0
5.33
8.0
5.67
6.0
10.33
5.0
4.0
1.33
7.33
7.33
23.67
38.67
125.33
217.0
283.67
259.33
126.33
21.33
11.33
-7.33
18.0
10.0
4.0
16.0
5.67
5.67
19.0
-3.67
-3.0
5.67
5.67
8.67
6.67
4.67
5.0
3.67
1.33
9.33
6.33
-7.33
7.0
4.33
4.33
7.67
1.33
-2.33
9.33
1.0
9.67
7.33
-5.33
13.67
16.33
9.33
20.0
6.33
14.33
-1.33
9.0
-11.0
-2.0
5.0
8.0
-4.67
-5.0
7.33
-1.33
4.33
-4.33
-7.33
13.33
2.33
3.33
5.33
8.67
1.67
10.0
0.33
12.0
-4.67
3.67
-2.33
2.33
-4.0
-3.0
3.33
-7.67
0.33
2.0
-3.67
-3.0
-8.67
-3.33
-2.67
-1.0
6.0
-7.0
-2.67
18.0
7.33
-2.0
-2.0
2.0
-2.67
3.0
7.33
5.67
4.33
6.33
4.67
-2.33
2.0
5.33
4.33
1.67
3.33
0.33
1.33
-3.0
4.0