Folder: EDX-Concrete-Analysis/EDX Back Ups and Old Files/Spectra copy 3.3.23/Samples/High pH BL 25C 4d

Note: README.md
This is Anthony's repository for doing all sorts of Energy Dispersive X-ray Analysis on concrete samples.

File: 6.5.txt
0.0
51.0
-5.33
-8.67
-5.67
1.33
2.67
1.67
1.0
-0.33
1.0
0.0
0.0
-0.33
0.0
1.0
0.0
-1.67
-2.67
11.0
3.0
8.67
7.0
3.67
4.0
6.33
7.33
5.33
-2.0
3.33
7.0
-2.0
2.67
1.0
3.0
0.33
2.33
4.33
0.67
1.33
5.0
0.33
2.33
1.67
1.33
2.67
6.0
3.0
11.33
2.0
8.0
-1.67
-3.0
3.67
4.0
1.67
-3.67
0.0
0.67
-1.67
6.0
4.33
1.67
-7.0
6.67
2.67
3.33
-3.0
7.67
1.33
6.0
-1.67
0.0
6.33
0.33
0.0
1.33
2.67
-3.33
0.0
-3.0
-4.0
2.0
-3.67
2.0
-1.33
-2.33
2.67
-0.67
4.0
1.33
-1.33
0.0
3.67
10.0
0.0
-3.0
1.0
2.67
1.67
1.33
3.67
0.0
-1.33
4.67
4.33
4.67
2.67
-2.67
6.67
-1.67
-1.0
1.67
-2.67
3.67
6.33
32.67
15.33
6.33
5.67
9.0
1.33
6.0
1.0
-2.33
11.33
3.67
5.0
4.33
6.67
2.0
4.33
-2.0
3.67
3.33
7.0
-0.33
2.33
4.67
10.67
3.67
0.33
0.33
2.33
3.67
11.0
12.0
18.0
16.67
15.33
10.33
-2.33
12.33
9.0
6.67
10.67
13.33
6.33
-0.67
5.0
8.0
-1.0
4.33
7.33
7.33
9.33
8.67
3.33
9.0
16.67
9.33
7.67
2.0
7.0
10.0
15.33
2.33
12.0
11.33
14.67
11.0
11.33
9.33
20.33
17.67
31.33
33.67
65.33
93.33
68.0
56.0
26.33
16.0
11.0
11.67
-1.33
14.0
7.0
14.33
16.33
15.33
4.0
9.67
19.67
7.0
5.33
15.67
19.0
7.67
-1.0
11.0
20.33
3.0
-5.0
8.0
15.67
18.67
19.33
42.33
22.67
6.0
0.33
5.0
19.0
4.0
15.33
-1.0
19.0
5.33
17.67
5.0
4.0
5.67
2.0
13.33
-10.33
12.67
10.0
-1.0
3.33
3.0
6.67
-1.33
-4.0
0.33
8.33
12.67
11.33
6.33
8.33
-0.33
17.67
11.0
3.33
-7.33
3.67
-3.67
1.0
-5.0
6.0
7.67
-2.0
1.0
7.67
8.0
3.0
6.0
4.0
9.33
7.67
-1.0
6.0
3.0
1.33
6.0
1.33
3.67
7.0
3.0
-2.67
4.67
-3.67
1.33
6.67
13.33
10.33
-1.0
0.0
2.67
4.67
2.67
-3.0
-3.33
0.67

File: 6.25.txt
0.0
-27.0
51.67
-21.67
3.33
2.33
-0.33
-0.33
1.0
-0.33
0.0
0.0
1.0
0.67
0.0
0.0
3.0
0.33
-1.67
8.0
0.0
3.67
5.0
2.67
-3.0
2.33
-1.67
8.33
-2.0
4.33
2.0
0.0
-2.33
6.0
3.0
-4.67
3.33
0.33
3.67
-2.67
2.0
1.33
1.33
8.67
4.33
0.67
-1.0
2.0
1.33
7.0
7.0
7.33
6.0
3.67
-3.0
3.67
7.33
3.0
-1.33
-1.67
2.0
4.33
2.67
0.0
3.67
5.67
-2.67
-3.0
-0.33
1.33
2.0
1.33
3.0
2.33
6.33
10.0
3.33
-0.33
0.67
-1.0
-5.0
3.0
2.0
-3.67
3.0
3.67
1.67
0.67
-0.67
2.0
-1.67
5.67
-6.0
5.67
1.0
2.0
2.0
1.0
5.67
1.67
0.33
2.67
3.0
-0.33
-3.33
4.33
1.67
6.67
-2.67
6.67
1.33
3.0
9.67
0.33
7.67
10.33
19.67
16.33
9.33
7.67
8.0
-1.67
-1.0
4.0
2.67
8.33
3.67
3.0
-0.67
8.67
6.0
7.33
-2.0
3.67
-8.67
3.0
9.67
2.33
3.67
13.67
-1.33
14.33
7.33
-4.67
9.67
7.0
11.0
9.0
6.67
17.33
17.33
4.67
5.33
-3.0
2.67
15.67
19.33
11.33
2.33
14.0
4.0
8.0
6.33
14.33
13.33
15.33
11.67
7.33
17.0
18.67
2.33
13.67
2.0
7.0
19.0
4.33
-2.67
12.0
4.33
2.67
8.0
18.33
15.33
21.33
17.67
23.33
42.67
73.33
81.33
96.0
59.0
26.33
16.0
13.0
5.67
2.67
9.0
17.0
12.33
18.33
10.33
20.0
17.67
16.67
11.0
13.33
9.67
10.0
7.67
14.0
7.0
17.33
6.0
4.0
11.0
14.67
20.67
33.33
28.33
13.67
14.0
-0.67
12.0
15.0
8.0
7.33
-3.0
0.0
4.33
12.67
15.0
-2.0
7.67
3.0
9.33
-1.33
6.67
15.0
-3.0
6.33
14.0
11.67
11.67
7.0
-2.67
-8.67
10.67
14.33
9.33
9.33
9.67
12.67
-1.0
2.33
-3.33
13.67
3.33
2.0
-6.0
8.0
4.67
5.0
-2.0
3.67
3.0
-1.0
2.0
-2.0
-2.67
5.67
1.0
5.0
-1.0
-5.67
6.0
5.33
3.67
-2.0
-2.0
3.33
-2.33
-0.67
0.33
-0.33
-1.67
5.33
2.0
-2.0
-2.33
2.67
1.67
-1.0
-0.33
-0.33

File: 6.75.txt
0.0
74.0
18.67
-27.67
-6.67
1.33
0.67
-0.33
0.0
0.67
0.0
0.0
2.0
-0.33
-1.0
0.0
2.0
-1.67
0.33
3.0
4.0
4.67
2.0
-0.33
4.0
0.33
-2.67
0.33
4.0
4.33
4.0
3.0
-3.33
6.0
3.0
3.33
6.33
6.33
2.67
-0.67
6.0
-5.67
3.33
2.67
0.33
0.67
8.0
4.0
2.33
8.0
7.0
0.33
5.0
5.67
2.0
0.67
8.33
2.0
-1.33
3.33
0.0
-0.67
5.67
-3.0
0.67
3.67
2.33
0.0
6.67
4.33
1.0
1.33
-1.0
7.33
3.33
3.0
-1.67
1.67
-0.33
3.0
-1.0
-1.0
-2.0
0.33
-2.0
1.67
0.67
0.67
-1.67
2.0
-0.67
2.67
3.0
-0.33
1.0
-3.0
1.0
1.0
2.67
1.67
3.33
-2.33
-1.0
-2.33
4.67
2.33
-0.33
-0.33
-0.67
4.67
5.33
-3.0
-0.33
11.33
6.67
14.33
27.67
23.33
11.33
2.67
11.0
0.33
3.0
1.0
-0.33
0.33
7.67
7.0
6.33
2.67
6.0
3.33
2.0
2.67
2.33
5.0
4.67
1.33
0.67
4.67
-1.33
2.33
1.33
2.33
1.67
10.0
28.0
16.0
19.67
10.33
10.33
11.67
15.33
5.0
11.67
16.67
22.33
10.33
-2.67
15.0
9.0
7.0
5.33
8.33
12.33
6.33
9.67
14.33
14.0
14.67
9.33
8.67
2.0
11.0
5.0
9.33
1.33
9.0
21.33
21.67
5.0
12.33
26.33
15.33
11.67
24.33
46.67
70.33
82.33
83.0
47.0
24.33
21.0
10.0
18.67
5.67
4.0
10.0
8.33
14.33
7.33
14.0
17.67
-0.33
6.0
0.33
10.67
18.0
-4.33
5.0
16.0
11.33
15.0
5.0
6.0
8.67
8.67
26.33
24.33
12.67
3.0
-4.67
13.0
19.0
3.0
11.33
1.0
8.0
11.33
19.67
6.0
3.0
12.67
3.0
15.33
9.67
18.67
15.0
0.0
13.33
-2.0
4.67
0.67
-2.0
-2.67
12.33
9.67
16.33
7.33
8.33
1.67
7.67
12.0
5.33
-5.33
2.67
6.33
4.0
-4.0
6.0
3.67
6.0
1.0
10.67
5.0
3.0
7.0
-3.0
-2.67
3.67
3.0
8.0
-2.0
-1.67
5.0
5.33
4.67
-3.0
-4.0
-0.67
4.67
2.33
2.33
0.67
-2.67
1.33
1.0
6.0
4.67
4.67
1.67
2.0
-1.33
3.67

File: 7.0.txt
0.0
6.0
-52.33
-25.67
-7.67
-3.67
-0.33
-0.33
0.0
-0.33
0.0
1.0
1.0
0.67
2.0
3.0
-1.0
-0.67
2.33
4.0
6.0
5.67
-1.0
2.67
-1.0
-0.67
5.33
0.33
5.0
6.33
-1.0
2.0
-0.33
9.0
4.0
2.33
3.33
2.33
5.67
1.33
6.0
-0.67
0.33
-1.33
0.33
-1.33
7.0
8.0
-2.67
5.0
1.0
10.33
2.0
8.67
-2.0
6.67
-0.67
-2.0
-1.33
-2.67
-3.0
-1.67
2.67
-5.0
3.67
2.67
1.33
1.0
3.67
3.33
3.0
2.33
-2.0
4.33
6.33
1.0
0.33
4.67
1.67
1.0
-2.0
2.0
6.0
-2.67
7.0
1.67
-0.33
-0.33
-0.67
5.0
-3.67
-0.33
-5.0
0.67
-2.0
-6.0
-2.0
1.0
-0.33
2.67
3.33
0.67
6.0
-2.33
4.67
1.33
8.67
-1.33
3.33
0.67
-1.67
-1.0
1.67
3.33
7.67
20.33
28.67
24.33
9.33
9.67
6.0
0.33
1.0
8.0
1.67
5.33
-0.33
-1.0
3.33
4.67
12.0
-1.67
3.0
12.67
5.33
3.0
6.67
5.33
4.67
3.67
1.67
-1.67
1.33
0.33
8.67
3.0
11.0
11.0
21.67
15.33
12.33
6.67
2.33
2.0
-1.33
11.67
10.33
14.33
11.33
10.0
2.0
6.0
8.33
2.33
9.33
1.33
16.67
2.33
5.0
4.67
2.33
15.67
11.0
13.0
9.0
4.33
2.33
10.0
10.33
1.67
19.0
13.33
12.33
13.33
9.67
22.33
36.67
75.33
93.33
83.0
58.0
16.33
17.0
27.0
11.67
9.67
12.0
8.0
13.33
13.33
9.33
10.0
10.67
18.67
7.0
1.33
1.67
10.0
4.67
-5.0
12.0
10.33
4.0
0.0
4.0
8.67
18.67
31.33
25.33
21.67
15.0
12.33
-3.0
20.0
-4.0
5.33
10.0
1.0
12.33
10.67
4.0
5.0
11.67
1.0
6.33
2.67
10.67
8.0
1.0
8.33
5.0
4.67
4.67
4.0
-1.67
8.33
14.67
6.33
-6.67
17.33
11.67
7.67
4.0
5.33
-2.33
15.67
-4.67
3.0
-5.0
0.0
1.67
5.0
0.0
4.67
1.0
-4.0
5.0
5.0
0.33
-0.33
-2.0
4.0
7.0
6.33
13.0
7.33
6.67
0.0
-1.0
3.33
3.67
1.33
3.33
1.67
3.33
2.33
-3.0
3.0
0.67
2.67
-2.33
6.0
-1.33
-1.33

File: 7.75.txt
0.0
71.0
5.67
-8.67
-8.67
-1.67
1.67
0.67
1.0
-0.33
0.0
1.0
0.0
0.67
-1.0
-1.0
-1.0
-0.67
2.33
3.0
6.0
8.67
10.0
1.67
-2.0
2.33
1.33
4.33
4.0
2.33
3.0
3.0
-5.33
8.0
-3.0
6.33
10.33
6.33
-1.33
3.33
0.0
4.33
-4.67
2.67
-0.67
4.67
8.0
-4.0
1.33
5.0
0.0
3.33
4.0
-1.33
-1.0
0.67
2.33
0.0
-0.33
0.33
-1.0
2.33
-1.33
-5.0
-0.33
8.67
-1.67
3.0
1.67
-0.67
6.0
-1.67
-1.0
6.33
7.33
3.0
0.33
0.67
2.67
0.0
-6.0
-3.0
-1.0
-0.67
0.0
2.67
-1.33
1.67
4.33
4.0
-0.67
5.67
-4.0
2.67
2.0
-2.0
-1.0
2.0
-1.33
2.67
3.33
5.67
2.0
-2.33
1.67
-3.67
3.67
-2.33
-3.67
3.67
3.33
2.0
6.67
5.33
3.67
14.33
22.67
23.33
12.33
4.67
4.0
-2.67
2.0
5.0
10.67
6.33
4.67
10.0
1.33
1.67
5.0
-4.67
4.0
-4.33
-2.67
3.0
11.67
3.33
3.67
4.67
1.67
-2.67
0.33
2.33
5.67
19.0
13.0
13.0
14.67
24.33
8.33
10.67
13.33
-6.0
9.67
10.67
6.33
11.33
-0.67
9.0
6.0
9.0
3.33
5.33
11.33
6.33
-1.33
10.33
10.0
16.67
6.33
2.67
8.0
4.0
14.0
0.33
14.33
5.0
14.33
11.67
7.0
11.33
16.33
18.33
12.67
41.33
26.67
83.33
113.33
102.0
57.0
22.33
30.0
3.0
10.67
2.67
10.0
14.0
25.33
15.33
21.33
9.0
8.67
8.67
22.0
3.33
4.67
10.0
9.67
6.0
2.0
12.33
4.0
6.0
-1.0
18.67
12.67
47.33
29.33
12.67
10.0
1.33
2.0
3.0
11.0
1.33
2.0
1.0
2.33
7.67
7.0
-4.0
14.67
7.0
1.33
11.67
7.67
14.0
-2.0
0.33
-5.0
1.67
3.67
3.0
3.33
1.33
4.67
2.33
2.33
5.33
12.67
2.67
14.0
10.33
-2.33
5.67
-2.67
4.0
2.0
-1.0
4.67
6.0
5.0
5.67
4.0
-1.0
-1.0
-2.0
-4.67
0.67
2.0
9.0
9.0
0.33
9.0
1.33
-0.33
2.0
0.0
-2.67
-6.33
0.33
-2.67
3.67
-1.67
-1.67
-3.0
0.0
-1.33
3.67
5.67
-1.0
-4.33
-0.33

File: 8.0.txt
0.0
121.0
2.67
-6.67
-4.67
-0.67
0.67
-0.33
0.0
1.67
0.0
1.0
1.0
0.67
1.0
2.0
3.0
-2.67
-0.67
4.0
1.0
3.67
-2.0
6.67
-1.0
3.33
6.33
0.33
5.0
-4.67
3.0
-1.0
1.67
4.0
1.0
7.33
10.33
2.33
0.67
3.33
-5.0
-2.67
2.33
2.67
3.33
-4.33
6.0
-3.0
-5.67
1.0
2.0
4.33
2.0
5.67
-2.0
-0.33
-0.67
-5.0
-4.33
4.33
1.0
3.33
5.67
-4.0
4.67
-0.33
4.33
-4.0
1.67
5.33
0.0
4.33
3.0
3.33
-0.67
-1.0
-0.67
5.67
1.67
1.0
-3.0
-1.0
8.0
0.33
0.0
-0.33
3.67
3.67
4.33
3.0
-6.67
1.67
-5.0
1.67
4.0
-2.0
4.0
-3.0
1.67
2.67
0.33
-1.33
1.0
-0.33
4.67
1.33
2.67
-1.33
2.33
2.67
3.33
8.0
-0.33
3.33
6.67
8.33
25.67
17.33
10.33
-0.33
6.0
-0.67
7.0
11.0
-2.33
4.33
2.67
2.0
3.33
3.67
7.0
13.33
-5.0
7.67
0.33
2.0
19.67
2.33
0.67
7.67
6.67
0.33
6.33
-1.67
10.67
8.0
4.0
28.0
18.67
18.33
14.33
13.67
12.33
2.0
-1.33
12.67
9.33
7.33
-0.67
7.0
15.0
-2.0
4.33
5.33
10.33
5.33
5.67
8.33
1.0
5.67
1.33
7.67
12.0
8.0
10.0
7.33
9.33
7.0
0.33
-0.33
9.0
12.33
4.33
14.33
9.67
36.33
34.67
80.33
88.33
82.0
44.0
12.33
13.0
8.0
14.67
0.67
5.0
8.0
12.33
4.33
9.33
23.0
13.67
15.67
2.0
11.33
2.67
17.0
3.67
-1.0
22.0
7.33
4.0
2.0
22.0
17.67
13.67
28.33
28.33
1.67
0.0
17.33
3.0
24.0
-2.0
4.33
5.0
5.0
-2.67
14.67
6.0
-5.0
1.67
11.0
6.33
-2.33
5.67
16.0
-2.0
11.33
-4.0
9.67
9.67
8.0
-2.67
4.33
12.67
7.33
2.33
-0.67
5.67
8.67
15.0
10.33
1.67
10.67
-2.67
2.0
-5.0
2.0
2.67
14.0
-2.0
5.67
-5.0
-1.0
5.0
8.0
0.33
7.67
-1.0
4.0
1.0
2.33
8.0
7.33
0.67
7.0
0.0
0.33
-1.33
-1.67
6.33
3.67
-0.67
1.33
1.0
1.0
0.67
3.67
0.67
6.0
-0.33
3.67

File: 9.25.txt
0.0
18.0
8.67
-28.67
7.33
-0.67
-0.33
-0.33
1.0
0.67
0.0
0.0
0.0
0.67
-1.0
0.0
0.0
-2.67
1.33
0.0
4.0
1.67
7.0
6.67
-1.0
9.33
2.33
-2.67
-1.0
-0.67
-1.0
0.0
-1.33
3.0
-1.0
5.33
7.33
-0.67
-3.33
7.33
-1.0
-6.67
5.33
-0.33
2.33
5.67
4.0
6.0
5.33
5.0
4.0
-0.67
3.0
0.67
1.0
3.67
3.33
2.0
-3.33
-1.67
5.0
0.33
1.67
-6.0
4.67
-2.33
-0.67
1.0
1.67
1.33
3.0
5.33
-3.0
-0.67
0.33
2.0
-0.67
-2.33
0.67
-1.0
4.0
0.0
0.0
-1.67
-2.0
5.67
-0.33
4.67
2.33
1.0
-2.67
1.67
-2.0
-0.33
4.0
1.0
2.0
2.0
-0.33
1.67
0.33
0.67
4.0
-3.33
2.67
1.33
-0.33
-3.33
3.33
-0.33
5.33
4.0
-6.33
1.33
14.67
25.33
38.67
23.33
6.33
2.67
3.0
6.33
1.0
6.0
1.67
-0.67
3.67
6.0
4.33
0.67
12.0
-0.67
-2.0
4.67
2.33
-1.0
8.67
3.33
10.67
14.67
2.67
0.33
4.33
-2.67
8.67
14.0
8.0
16.0
19.67
24.33
17.33
5.67
8.33
2.0
2.67
11.67
16.33
5.33
-0.67
18.0
13.0
2.0
3.33
6.33
16.33
1.33
0.67
11.33
12.0
11.67
9.33
17.67
4.0
8.0
7.0
5.33
4.33
11.0
5.33
18.67
3.0
13.33
13.33
14.33
6.67
28.33
45.67
91.33
105.33
94.0
37.0
27.33
21.0
10.0
7.67
2.67
5.0
15.0
4.33
5.33
6.33
5.0
-6.33
13.67
12.0
16.33
12.67
6.0
9.67
4.0
2.0
14.33
14.0
7.0
2.0
18.67
21.67
39.33
40.33
15.67
8.0
5.33
9.0
5.0
7.0
6.33
3.0
4.0
8.33
22.67
4.0
-1.0
5.67
-1.0
4.33
5.67
7.67
14.0
5.0
12.33
-2.0
11.67
-2.33
-4.0
-2.67
7.33
15.67
3.33
5.33
4.33
9.67
1.67
5.0
9.33
2.67
-4.33
2.33
-6.0
-7.0
8.0
7.67
12.0
-3.0
7.67
11.0
-2.0
2.0
1.0
-5.67
11.67
4.0
3.0
0.0
11.33
0.0
2.33
7.67
2.0
0.0
0.33
-5.33
7.33
4.33
3.67
-3.67
-2.67
5.0
2.0
1.67
1.67
0.67
2.0
-0.33
-2.33

File: 9.75.txt
0.0
60.0
-51.33
-39.67
-9.67
-3.67
-0.33
-0.33
1.0
-0.33
0.0
0.0
0.0
0.67
-1.0
1.0
2.0
-0.67
0.33
2.0
3.0
6.67
7.0
0.67
1.0
4.33
2.33
4.33
-2.0
2.33
5.0
-2.0
-0.33
0.0
2.0
6.33
2.33
5.33
4.67
-0.67
-3.0
1.33
1.33
0.67
3.33
4.67
11.0
-4.0
0.33
-3.0
3.0
-0.67
1.0
1.67
-2.0
2.67
-1.67
7.0
1.67
-5.67
6.0
7.33
-0.33
-5.0
0.67
4.67
-2.67
0.0
2.67
0.33
8.0
3.33
0.0
1.33
-0.67
-2.0
-0.67
-2.33
2.67
1.0
-1.0
-3.0
3.0
6.33
0.0
0.67
-0.33
-0.33
1.33
0.0
-2.67
-1.33
-2.0
-0.33
0.0
0.0
4.0
1.0
1.67
1.67
0.33
2.67
3.0
1.67
8.67
-1.67
1.67
3.67
-2.67
6.67
-2.67
2.0
-3.33
0.33
3.67
17.33
35.67
18.33
21.33
5.67
0.0
1.33
-3.0
9.0
1.67
2.33
-0.33
4.0
15.33
11.67
2.0
3.33
0.0
-1.33
4.33
9.0
4.67
8.33
0.67
6.67
5.67
5.33
4.33
7.33
9.67
5.0
6.0
17.0
13.67
22.33
8.33
0.67
12.33
5.0
2.67
8.67
0.33
15.33
7.33
11.0
7.0
7.0
12.33
18.33
3.33
1.33
11.67
8.33
6.0
4.67
14.33
11.67
4.0
10.0
7.0
4.33
9.33
4.0
1.33
9.67
8.0
12.33
17.33
26.33
19.67
22.33
54.67
82.33
114.33
112.0
57.0
32.33
20.0
1.0
13.67
12.67
11.0
2.0
4.33
16.33
9.33
7.0
6.67
4.67
5.0
8.33
6.67
3.0
8.67
12.0
5.0
17.33
17.0
6.0
6.0
22.67
24.67
34.33
43.33
24.67
16.0
12.33
3.0
11.0
6.0
-3.67
13.0
13.0
11.33
21.67
10.0
14.0
8.67
2.0
17.33
3.67
-1.33
-1.0
-4.0
-0.67
2.0
8.67
5.67
1.0
5.33
0.33
8.67
0.33
11.33
7.33
6.67
14.67
4.0
6.33
-0.33
2.67
1.33
-2.0
-4.0
4.0
10.67
5.0
-6.0
-1.33
6.0
2.0
-1.0
6.0
-4.67
1.67
3.0
9.0
-5.0
-2.67
2.0
1.33
0.67
8.0
2.0
5.33
0.67
-0.67
6.33
7.67
2.33
1.33
5.0
6.0
3.67
2.67
4.67
-2.0
0.67
0.67

File: 10.0.txt
0.0
-81.0
-70.33
-35.67
-0.67
2.33
0.67
0.67
0.0
-0.33
0.0
1.0
2.0
1.67
1.0
0.0
3.0
0.33
-2.67
0.0
3.0
8.67
2.0
3.67
0.0
0.33
-4.67
7.33
3.0
3.33
4.0
4.0
0.67
7.0
-1.0
-1.67
5.33
2.33
4.67
1.33
0.0
-2.67
8.33
1.67
1.33
-0.33
3.0
1.0
4.33
0.0
5.0
6.33
1.0
-1.33
2.0
0.67
2.33
-1.0
-4.33
1.33
-6.0
-2.67
3.67
1.0
2.67
0.67
3.33
-1.0
6.67
-0.67
1.0
-3.67
5.0
1.33
2.33
0.0
-1.67
0.67
-2.33
2.0
2.0
2.0
0.0
-0.67
1.0
1.67
3.67
3.67
-4.67
-2.0
-2.67
0.67
-5.0
-1.33
1.0
0.0
-4.0
-2.0
3.67
3.67
1.33
4.67
5.0
-1.33
2.67
-0.67
5.67
0.67
0.33
-0.33
1.33
-4.0
-1.33
-0.67
7.67
25.33
43.67
35.33
11.33
8.67
1.0
2.33
-3.0
3.0
-0.33
9.33
12.67
7.0
-0.67
4.67
4.0
2.33
9.0
3.67
-5.67
-2.0
10.67
0.33
11.67
10.67
6.67
1.33
2.33
3.33
8.67
16.0
6.0
16.0
31.67
21.33
13.33
3.67
10.33
7.0
8.67
14.67
8.33
3.33
4.33
19.0
9.0
6.0
9.33
8.33
-2.67
2.33
6.67
3.33
-2.0
5.67
3.33
11.67
11.0
11.0
9.0
18.33
7.33
9.0
9.33
6.67
5.0
14.33
14.33
20.33
9.67
39.33
45.67
87.33
93.33
117.0
52.0
17.33
15.0
13.0
18.67
7.67
7.0
9.0
20.33
15.33
17.33
18.0
9.67
6.67
4.0
20.33
15.67
11.0
6.67
13.0
6.0
16.33
0.0
7.0
2.0
12.67
14.67
13.33
29.33
14.67
17.0
10.33
8.0
13.0
1.0
6.33
10.0
-4.0
8.33
15.67
3.0
4.0
5.67
8.0
3.33
3.67
15.67
4.0
-5.0
3.33
7.0
7.67
7.67
5.0
-6.67
5.33
7.67
16.33
-5.67
12.33
4.67
15.67
4.0
6.33
-2.33
2.67
-2.67
-5.0
-7.0
10.0
-0.33
4.0
-5.0
10.67
-2.0
0.0
-3.0
5.0
-6.67
4.67
-1.0
2.0
11.0
3.33
7.0
2.33
-3.33
4.0
3.0
0.33
-0.33
1.33
-0.67
2.67
4.33
-1.67
-5.0
3.0
3.67
4.67
0.67
-5.0
-0.33
1.67

File: 11.5.txt
0.0
-118.0
-12.33
-34.67
-0.67
-0.67
-0.33
-0.33
0.0
-0.33
1.0
0.0
1.0
0.67
0.0
0.0
0.0
0.33
0.33
3.0
5.0
3.67
6.0
8.67
-1.0
0.33
-5.67
6.33
5.0
3.33
2.0
3.0
1.67
0.0
-3.0
-0.67
5.33
-0.67
-2.33
-1.67
2.0
1.33
1.33
3.67
1.33
7.67
8.0
0.0
1.33
2.0
1.0
2.33
2.0
2.67
2.0
3.67
-2.67
1.0
-3.33
-0.67
2.0
5.33
0.67
-7.0
-1.33
0.67
-3.67
1.0
-2.33
1.33
5.0
-0.67
-2.0
8.33
3.33
0.0
-3.67
0.67
0.67
6.0
1.0
-3.0
5.0
-5.67
0.0
5.67
-1.33
5.67
5.33
-2.0
-0.67
-1.33
-5.0
-1.33
5.0
-1.0
-5.0
0.0
1.67
3.67
-3.67
4.67
4.0
-0.33
2.67
6.33
1.67
1.67
6.33
2.67
1.33
2.0
2.67
10.33
7.67
21.33
20.67
11.33
6.33
5.67
2.0
-1.67
-1.0
10.0
2.67
5.33
1.67
3.0
7.33
0.67
16.0
8.33
11.0
1.67
0.33
11.0
4.67
-0.67
-1.33
7.67
-0.33
7.33
2.33
0.33
5.67
11.0
15.0
24.0
49.67
22.33
14.33
11.67
13.33
6.0
9.67
21.67
5.33
16.33
4.33
19.0
16.0
6.0
5.33
8.33
17.33
10.33
4.67
1.33
13.0
12.67
6.33
12.67
6.0
9.0
18.0
9.33
-0.67
14.0
22.33
14.67
9.0
20.33
8.33
11.33
18.67
54.33
93.67
196.33
249.33
189.0
94.0
38.33
21.0
12.0
20.67
3.67
16.0
7.0
16.33
12.33
12.33
13.0
12.67
21.67
6.0
17.33
9.67
11.0
2.67
6.0
6.0
12.33
7.0
2.0
10.0
7.67
3.67
23.33
12.33
1.67
17.0
7.33
9.0
14.0
6.0
4.33
8.0
14.0
8.33
19.67
-1.0
0.0
5.67
18.0
3.33
8.67
5.67
9.0
7.0
2.33
-9.0
10.67
10.67
-5.0
-9.67
-15.67
10.67
-0.67
3.33
5.33
6.67
5.67
9.0
1.33
-4.33
-1.33
1.33
-1.0
4.0
3.0
-1.33
1.0
-8.0
8.67
-1.0
-9.0
0.0
-4.0
0.33
5.67
-5.0
3.0
3.0
-0.67
6.0
5.33
0.67
4.0
-5.0
2.33
-0.33
1.33
0.33
0.67
-3.67
2.33
-7.0
4.0
2.67
7.67
2.67
-5.0
-2.33
5.67

File: 11.75.txt
0.0
-7.0
-12.33
-47.67
-11.67
-2.67
3.67
-0.33
2.0
-0.33
0.0
0.0
0.0
-0.33
0.0
0.0
2.0
0.33
-1.67
12.0
11.0
0.67
0.0
1.67
-5.0
4.33
-4.67
0.33
6.0
0.33
2.0
2.0
1.67
2.0
5.0
0.33
4.33
0.33
7.67
1.33
-2.0
-0.67
9.33
2.67
2.33
-1.33
5.0
3.0
3.33
8.0
0.0
1.33
3.0
1.67
-2.0
1.67
1.33
1.0
-0.33
-2.67
-3.0
-0.67
-1.33
-1.0
2.67
3.67
2.33
0.0
0.67
3.33
4.0
-2.67
-3.0
4.33
2.33
4.0
-0.67
0.67
1.67
3.0
0.0
1.0
2.0
0.33
0.0
-0.33
-5.33
1.67
-0.67
-2.0
-0.67
0.67
-4.0
0.67
0.0
-1.0
-3.0
-1.0
-0.33
1.67
2.33
3.67
2.0
1.67
0.67
2.33
2.67
-0.33
-0.67
2.67
0.33
4.0
-3.33
9.33
5.67
8.33
9.67
11.33
2.33
10.67
8.0
2.33
1.0
4.0
12.67
2.33
0.67
8.0
10.33
5.67
12.0
7.33
-3.0
1.67
8.33
6.0
14.67
0.33
4.67
5.67
5.67
2.33
5.33
6.33
18.67
16.0
17.0
34.0
43.67
30.33
18.33
5.67
8.33
-2.0
3.67
15.67
13.33
20.33
5.33
12.0
19.0
8.0
14.33
11.33
14.33
1.33
12.67
18.33
13.0
25.67
10.33
10.67
13.0
13.0
8.0
5.33
6.33
20.0
3.33
2.67
20.0
6.33
18.33
15.33
16.67
46.33
110.67
209.33
278.33
215.0
102.0
35.33
20.0
6.0
20.67
-6.33
11.0
-3.0
9.33
8.33
9.33
16.0
7.67
12.67
-3.0
0.33
9.67
10.0
7.67
-3.0
19.0
10.33
-3.0
9.0
6.0
-3.33
-0.33
6.33
12.33
8.67
4.0
10.33
14.0
-5.0
6.0
16.33
2.0
-8.0
3.33
16.67
20.0
0.0
5.67
7.0
-5.67
3.67
7.67
1.0
5.0
10.33
-6.0
6.67
1.67
-2.0
5.33
-3.67
8.67
6.33
5.33
20.33
19.67
10.67
0.0
10.33
1.67
5.67
5.33
2.0
-2.0
5.0
6.67
5.0
-3.0
-1.33
-4.0
-5.0
-3.0
6.0
-0.67
2.67
2.0
9.0
-2.0
4.33
11.0
2.33
-1.33
4.0
-2.0
1.33
5.67
2.33
6.33
0.67
2.33
4.33
-2.0
2.0
5.67
4.67
-4.33
3.0
0.67
4.67

File: 12.0.txt
0.0
84.0
-9.33
-22.67
-8.67
-0.67
0.67
0.67
0.0
0.67
0.0
0.0
1.0
-0.33
0.0
1.0
1.0
-2.67
1.33
6.0
3.0
4.67
4.0
0.67
2.0
-0.67
-0.67
2.33
-2.0
-2.67
1.0
2.0
1.67
3.0
5.0
2.33
-3.67
2.33
0.67
-2.67
1.0
-4.67
-2.67
-0.33
-0.67
0.67
4.0
-2.0
-0.67
-2.0
5.0
-0.67
-1.0
7.67
5.0
0.67
4.33
1.0
-6.33
-3.67
-1.0
-1.67
-0.33
-7.0
1.67
5.67
2.33
-4.0
0.67
-4.67
2.0
-1.67
1.0
5.33
2.33
0.0
-3.67
0.67
3.67
-2.0
1.0
-1.0
5.0
-2.67
-1.0
0.67
-1.33
0.67
1.33
2.0
2.33
-0.33
1.0
1.67
7.0
-1.0
0.0
6.0
1.67
5.67
3.33
7.67
4.0
-0.33
-0.33
3.33
7.67
2.67
-0.67
-2.33
-1.67
7.0
4.67
3.33
-0.33
7.33
6.67
2.33
3.33
-0.33
5.0
6.33
-4.0
5.0
-0.33
6.33
-0.33
12.0
7.33
3.67
6.0
6.33
5.0
5.67
1.33
9.0
6.67
-2.67
12.67
9.67
9.67
6.33
9.33
9.33
2.67
20.0
18.0
34.0
38.67
34.33
18.33
13.67
22.33
8.0
2.67
11.67
2.33
6.33
3.33
20.0
7.0
7.0
5.33
6.33
10.33
12.33
10.67
7.33
10.0
4.67
11.33
15.67
4.0
10.0
10.0
-4.67
4.33
11.0
10.33
11.67
14.0
10.33
15.33
18.33
9.67
55.33
124.67
216.33
272.33
252.0
121.0
33.33
25.0
4.0
14.67
16.67
5.0
8.0
11.33
18.33
19.33
14.0
5.67
5.67
1.0
7.33
14.67
12.0
3.67
1.0
8.0
5.33
0.0
3.0
3.0
4.67
-4.33
1.33
9.33
1.67
12.0
4.33
7.0
7.0
5.0
9.33
4.0
3.0
4.33
16.67
20.0
3.0
-0.33
9.0
8.33
4.67
2.67
13.0
1.0
8.33
2.0
12.67
2.67
1.0
0.33
-2.67
10.67
2.33
7.33
9.33
7.67
15.67
4.0
5.33
-3.33
4.67
-3.67
5.0
-9.0
-4.0
6.67
9.0
1.0
9.67
10.0
-4.0
0.0
0.0
-5.67
1.67
-4.0
7.0
5.0
-0.67
8.0
6.33
2.67
-1.0
1.0
4.33
-1.33
1.33
0.33
-0.33
-0.67
1.33
-2.0
1.0
3.67
4.67
-3.33
0.0
0.67
1.67