Folder: EDX-Concrete-Analysis/EDX Back Ups and Old Files/Spectra copy 3.3.23/Samples/High pH SF Ref

Note: README.md
This is Anthony's repository for doing all sorts of Energy Dispersive X-ray Analysis on concrete samples.

File: 6.0.txt
0.0
-78.0
21.33
-7.33
-8.0
-2.33
0.67
-0.33
0.0
-0.33
0.67
0.0
0.0
1.33
0.33
-1.33
0.33
-0.67
5.67
-0.67
2.0
2.33
-3.33
9.33
7.33
3.33
4.33
-0.33
2.33
2.67
12.67
8.0
0.67
3.0
1.33
0.0
9.67
5.0
4.0
3.0
4.67
6.0
5.33
2.0
2.0
0.0
2.33
7.0
5.67
1.33
0.0
2.67
0.67
9.0
3.0
6.0
3.33
3.33
5.0
-3.0
7.0
1.0
7.33
-3.33
-0.67
5.33
2.0
-4.33
1.0
7.67
-0.33
2.33
2.0
0.67
8.67
0.0
1.67
2.0
1.67
-1.33
2.67
-1.67
-1.67
2.33
-3.33
4.67
0.67
0.67
1.67
4.0
0.0
-5.67
1.0
1.67
-0.33
-3.0
0.0
-1.0
1.0
0.0
-6.33
-1.0
-0.33
-4.0
-4.0
-2.33
-4.0
-3.0
-3.67
6.67
-1.0
-1.33
-1.33
-1.33
-3.33
-0.67
18.0
8.0
1.67
0.67
-1.33
-1.0
-4.67
-6.33
-8.33
-10.67
-5.0
-4.33
3.67
-9.67
-7.33
-2.67
0.67
2.33
-3.0
-1.67
1.67
0.33
0.0
-6.0
0.0
-5.33
5.0
-4.33
1.67
-0.67
4.67
11.33
16.67
8.67
6.33
5.67
8.0
5.67
0.67
9.33
1.0
3.33
6.0
4.67
-3.33
9.33
6.67
7.33
15.33
11.33
4.0
2.0
13.0
3.0
9.67
0.0
14.67
14.33
5.33
8.0
15.33
5.33
3.67
8.0
15.0
5.0
18.33
17.67
23.33
29.0
47.67
50.67
66.67
63.0
45.33
32.67
3.0
0.67
3.33
5.0
21.0
7.33
13.67
8.67
10.33
12.33
9.67
16.0
16.33
13.0
8.33
13.0
8.67
4.33
1.67
4.33
16.67
10.33
5.0
7.67
23.0
13.0
28.0
11.0
11.0
21.0
5.33
15.0
-4.67
-5.33
6.33
5.33
1.67
23.0
13.67
4.0
3.33
5.0
12.0
-2.0
-4.33
6.67
-12.33
7.67
-7.0
18.33
8.33
3.0
7.0
-5.67
16.0
8.33
12.67
6.33
7.67
8.33
11.33
4.67
1.33
0.33
13.0
10.33
4.0
-4.0
6.0
3.67
8.33
3.67
-7.0
-0.67
1.0
-1.0
4.33
0.67
0.67
-2.33
4.67
3.0
-2.67
5.67
0.67
-2.0
5.33
3.33
-0.33
-1.33
10.0
-4.67
2.33
2.0
4.0
10.33
3.33
7.33
3.67
3.33
-0.33
-0.33

File: 7.25.txt
0.0
-77.0
-77.67
22.67
4.0
0.67
1.67
-0.33
1.0
0.67
-0.33
0.0
0.0
-0.67
2.33
0.67
1.33
-2.67
-2.33
3.33
2.0
3.33
-0.33
2.33
6.33
-1.67
8.33
6.67
5.33
7.67
-0.33
1.0
-1.33
5.0
5.33
5.0
0.67
5.0
11.0
-3.0
4.67
1.0
4.33
-6.0
7.0
0.0
-1.67
0.0
-1.33
10.33
1.0
-0.33
4.67
8.0
2.0
0.0
6.33
3.33
1.0
5.0
1.0
2.0
4.33
-4.33
-3.67
-0.67
2.0
-0.33
0.0
-2.33
2.67
-1.67
-7.0
1.67
1.67
-6.0
-2.33
1.0
3.67
1.67
3.67
-2.67
0.33
3.33
-3.33
1.67
0.67
2.67
-1.33
-2.0
-1.0
-1.67
-3.0
3.67
-3.33
2.0
4.0
-2.0
-4.0
-4.0
-2.33
5.0
-1.33
1.0
-2.0
-0.33
-3.0
-9.0
-3.67
-3.33
-5.0
-7.33
0.67
-1.33
3.67
11.33
11.0
12.0
3.67
0.67
-0.33
-1.0
-3.67
-7.33
-3.33
-5.67
-7.0
-1.33
-1.33
2.33
2.67
-0.67
-0.33
2.33
1.0
0.33
-3.33
-5.67
1.0
1.0
0.0
-1.33
0.0
4.67
1.67
-7.67
2.67
15.33
21.67
11.67
7.33
-0.33
18.0
0.67
4.67
8.33
13.0
5.33
5.0
4.67
0.67
-1.67
3.67
5.33
14.33
21.33
5.0
10.0
22.0
13.0
15.67
7.0
6.67
9.33
13.33
10.0
10.33
5.33
5.67
10.0
0.0
20.0
4.33
22.67
25.33
23.0
33.67
76.67
76.67
60.0
26.33
31.67
15.0
8.67
1.33
18.0
13.0
-3.67
0.67
6.67
8.33
14.33
15.67
11.0
11.33
24.0
12.33
0.0
1.67
16.33
2.67
16.33
8.67
7.33
11.0
24.67
19.0
20.0
32.0
12.0
5.0
9.0
-1.67
5.0
-6.67
9.67
13.33
14.33
-4.33
13.0
14.67
19.0
4.33
1.0
7.0
10.0
9.67
4.67
-4.33
-11.33
4.0
9.33
14.33
2.0
3.0
-6.67
10.0
-1.67
1.67
12.33
0.67
1.33
4.33
-4.33
-2.67
-0.67
3.0
10.33
14.0
7.0
4.0
0.67
9.33
1.67
4.0
1.33
4.0
-1.0
2.33
5.67
5.67
-2.33
-3.33
12.0
-2.67
0.67
6.67
1.0
8.33
-2.67
-2.33
-4.33
-4.0
-0.67
1.33
-2.0
-1.0
3.33
5.33
2.33
-1.33
2.33
0.67
-3.33

File: 8.0.txt
0.0
27.0
-11.67
29.67
-5.0
8.67
-0.33
-0.33
0.0
-0.33
-0.33
1.0
1.0
1.33
0.33
0.67
-1.67
3.33
2.67
-1.67
15.0
2.33
-0.33
6.33
0.33
-5.67
3.33
7.67
4.33
2.67
0.67
-3.0
3.67
10.0
-0.67
5.0
3.67
1.0
8.0
4.0
-2.33
2.0
2.33
-5.0
5.0
3.0
6.33
5.0
-0.33
6.33
-5.0
2.67
0.67
8.0
0.0
3.0
2.33
1.33
1.0
0.0
1.0
5.0
3.33
-3.33
0.33
1.33
0.0
-0.33
2.0
2.67
-1.33
3.33
-4.0
1.67
3.67
5.0
-2.33
1.0
1.67
-0.33
0.67
3.33
-3.67
0.33
-0.33
2.67
3.67
-0.33
1.67
-2.0
-1.0
-2.67
-4.0
-0.33
-3.33
-1.0
0.0
-1.0
0.0
-1.0
-4.33
-2.0
-2.33
-2.0
2.0
-4.33
-7.0
-7.0
-1.67
-2.33
-4.0
-3.33
-0.33
-3.33
-0.33
11.33
33.0
9.0
-5.33
3.67
5.67
5.0
-1.67
1.67
-6.33
-5.67
-5.0
-6.33
2.67
2.33
-6.33
-6.67
-3.33
13.33
1.0
-1.67
-2.33
-4.67
-10.0
-2.0
1.0
-1.33
0.0
7.67
2.67
-0.67
9.67
16.33
16.67
19.67
7.33
6.67
12.0
9.67
5.67
0.33
6.0
8.33
5.0
5.67
8.67
0.33
5.67
6.33
0.33
19.33
13.0
4.0
11.0
7.0
6.67
2.0
4.67
-1.67
10.33
2.0
12.33
7.33
3.67
6.0
7.0
10.0
4.33
9.67
23.33
30.0
23.67
74.67
88.67
78.0
62.33
22.67
6.0
4.67
2.33
14.0
13.0
-2.67
9.67
23.67
5.33
12.33
2.67
8.0
11.33
10.0
19.33
-2.0
13.67
-2.67
10.67
17.33
7.67
11.33
-1.0
7.67
9.0
30.0
17.0
23.0
7.0
17.0
2.33
17.0
8.33
7.67
10.33
8.33
6.67
19.0
11.67
8.0
7.33
12.0
7.0
2.0
-6.33
8.67
-1.33
-2.33
0.0
1.33
2.33
9.0
-9.0
-3.67
3.0
4.33
-3.33
3.33
18.67
19.33
4.33
3.67
-2.67
0.33
0.0
18.33
18.0
-1.0
4.0
4.67
6.33
4.67
-1.0
3.33
7.0
-2.0
6.33
8.67
6.67
0.67
9.67
14.0
-0.67
9.67
-2.33
-3.0
3.33
-5.67
-2.33
0.67
2.0
1.33
4.33
8.0
6.0
6.33
2.33
-2.67
6.67
5.33
3.67
0.67

File: 8.25.txt
0.0
-64.0
-33.67
-6.33
-8.0
4.67
-0.33
0.67
0.0
-0.33
-0.33
0.0
0.0
0.33
0.33
0.67
0.33
-4.67
2.67
12.33
0.0
1.33
5.67
5.33
2.33
2.33
-1.67
5.67
-1.67
5.67
-1.33
-1.0
5.67
2.0
3.33
2.0
5.67
1.0
4.0
5.0
3.67
2.0
4.33
-4.0
9.0
-2.0
2.33
5.0
0.67
6.33
-6.0
-1.33
3.67
-1.0
6.0
-2.0
4.33
-0.67
3.0
-1.0
1.0
3.0
9.33
-3.33
-0.67
7.33
-1.0
-3.33
1.0
-0.33
0.67
-2.67
-2.0
-4.33
4.67
-3.0
-1.33
2.0
-0.33
1.67
2.67
2.33
-1.67
6.33
-4.33
1.67
-1.33
-0.33
0.67
1.0
-2.0
-0.67
-2.0
0.67
-3.33
-2.0
3.0
1.0
-4.0
2.0
-4.33
1.0
-2.33
-4.0
0.0
-3.33
-6.0
-7.0
-2.67
-3.33
-9.0
-9.33
1.67
6.67
-6.33
1.33
24.0
16.0
11.67
6.67
3.67
-3.0
3.33
-2.33
-10.33
-14.67
-10.0
-7.33
-0.33
-2.67
4.67
-5.67
-5.33
2.33
7.0
0.33
-1.33
-5.67
-7.0
-2.0
2.0
2.67
2.0
2.67
-0.33
14.33
10.67
19.33
15.67
22.67
-4.67
0.67
11.0
5.67
4.67
-4.67
5.0
-1.67
5.0
5.67
5.67
16.33
3.67
2.33
14.33
12.33
3.0
3.0
12.0
-5.0
-0.33
7.0
13.67
7.33
17.33
5.0
12.33
16.33
-0.33
-3.0
5.0
20.0
1.33
15.67
35.33
24.0
42.67
67.67
67.67
56.0
43.33
22.67
7.0
9.67
0.33
11.0
20.0
13.33
11.67
16.67
17.33
-4.67
8.67
14.0
4.33
13.0
5.33
13.0
14.67
7.33
26.67
10.33
1.67
-0.67
11.0
26.67
30.0
19.0
29.0
24.0
11.0
0.0
6.33
10.0
1.33
9.67
7.33
6.33
4.67
6.0
8.67
2.0
-8.67
0.0
8.0
1.0
0.67
13.67
5.67
-1.33
1.0
12.33
8.33
11.0
5.0
1.33
15.0
8.33
2.67
9.33
-2.33
4.33
1.33
5.67
-1.67
3.33
10.0
0.33
7.0
-2.0
4.0
6.67
-0.67
4.67
4.0
0.33
6.0
-6.0
4.33
3.67
13.67
-4.33
-3.33
-2.0
4.33
6.67
-1.33
0.0
1.33
0.33
1.67
1.67
2.0
8.33
-1.67
5.0
4.0
10.33
5.33
-1.67
-0.33
-2.67
0.67
-0.33

File: 9.25.txt
0.0
22.0
15.33
1.67
9.0
-0.33
-0.33
-0.33
0.0
-0.33
-0.33
0.0
2.0
0.33
1.33
-0.33
0.33
1.33
-1.33
3.33
4.0
9.33
-0.33
2.33
0.33
-1.67
2.33
2.67
-0.67
1.67
3.67
-4.0
2.67
7.0
2.33
5.0
8.67
0.0
7.0
2.0
2.67
7.0
5.33
4.0
2.0
1.0
4.33
1.0
-3.33
-0.67
5.0
7.67
1.67
2.0
-1.0
-1.0
6.33
-0.67
3.0
4.0
1.0
4.0
-3.67
-4.33
6.33
6.33
1.0
1.67
-2.0
-2.33
-2.33
-1.67
1.0
0.67
7.67
2.0
-0.33
-3.0
2.67
3.67
4.67
-2.67
-0.67
1.33
-3.33
4.67
-4.33
0.67
1.67
-4.0
0.0
-0.67
-1.0
-1.33
-3.33
1.0
4.0
-1.0
1.0
0.0
-5.33
3.0
-6.33
1.0
2.0
-3.33
-3.0
-10.0
-0.67
-5.33
-6.0
-4.33
2.67
-1.33
-0.33
14.33
29.0
12.0
0.67
-1.33
-1.33
-4.0
0.33
-6.33
-1.33
-7.67
1.0
1.67
-1.33
-3.67
3.67
-11.67
4.67
2.33
-5.0
1.33
0.67
-1.67
4.0
0.0
3.0
0.67
-3.0
11.67
8.67
-3.67
2.67
20.33
14.67
4.67
1.33
-0.33
4.0
2.67
6.67
9.33
2.0
7.33
6.0
0.67
8.67
7.33
6.67
2.33
4.33
11.33
12.0
3.0
3.0
11.0
16.67
8.0
8.67
8.33
11.33
10.0
14.33
16.33
5.67
3.0
11.0
10.0
7.33
15.67
34.33
25.0
49.67
83.67
93.67
108.0
51.33
31.67
13.0
-1.33
6.33
11.0
12.0
11.33
4.67
7.67
9.33
0.33
3.67
13.0
-1.67
20.0
13.33
3.0
5.67
1.33
3.67
7.33
12.67
10.33
9.0
16.67
25.0
14.0
28.0
3.0
11.0
2.0
-1.67
3.0
0.33
3.67
14.33
10.33
13.67
10.0
8.67
11.0
8.33
-1.0
16.0
1.0
9.67
8.67
1.67
10.67
1.0
7.33
8.33
2.0
3.0
2.33
12.0
10.33
4.67
8.33
9.67
4.33
8.33
-1.33
6.33
4.33
1.0
0.33
20.0
-4.0
3.0
5.67
1.33
2.67
2.0
-5.67
-5.0
1.0
8.33
-0.33
8.67
8.67
6.67
2.0
4.33
7.67
-1.33
-2.0
7.33
-5.67
-0.33
6.67
0.0
1.33
8.33
2.0
-3.0
5.33
0.33
-4.67
-4.33
11.33
0.67
-4.33

File: 10.75.txt
0.0
69.0
-24.67
15.67
-8.0
2.67
-0.33
-0.33
0.0
-0.33
-0.33
0.0
0.0
0.33
1.33
-0.33
3.33
3.33
-1.33
3.33
-1.0
2.33
8.67
2.33
11.33
-4.67
3.33
0.67
-4.67
9.67
2.67
2.0
4.67
6.0
-1.67
8.0
1.67
3.0
3.0
5.0
0.67
2.0
4.33
-3.0
3.0
-1.0
2.33
0.0
1.67
0.33
3.0
-1.33
-1.33
7.0
2.0
3.0
3.33
3.33
6.0
-3.0
3.0
3.0
-3.67
-5.33
7.33
-0.67
0.0
-3.33
3.0
-2.33
-1.33
4.33
0.0
-0.33
5.67
1.0
-4.33
6.0
-2.33
3.67
3.67
-2.67
-4.67
3.33
-7.33
1.67
-0.33
1.67
0.67
-1.0
-3.0
-1.67
-1.0
-0.33
3.67
-3.0
-3.0
-1.0
-2.0
-2.0
-7.33
-3.0
-2.33
-3.0
0.0
-4.33
-7.0
-9.0
-6.67
-1.33
-4.0
-2.33
3.67
-3.33
6.67
24.33
42.0
21.0
11.67
0.67
3.67
-4.0
-2.67
-2.33
-5.33
-2.67
-2.0
-4.33
-1.33
0.33
-0.33
-1.67
0.67
8.33
3.0
-5.67
-5.33
-2.67
-2.0
-1.0
-1.0
5.67
2.0
2.67
2.67
-3.67
9.67
19.33
24.67
21.67
-0.67
5.67
12.0
3.67
21.67
6.33
16.0
5.33
6.0
17.67
-0.33
8.33
15.67
2.33
4.33
14.33
4.0
1.0
18.0
18.0
10.67
16.0
2.67
6.33
21.33
14.0
16.33
13.33
10.67
1.0
16.0
18.0
0.33
33.67
34.33
37.0
53.67
90.67
104.67
101.0
54.33
21.67
6.0
11.67
4.33
22.0
11.0
8.33
15.67
16.67
17.33
9.33
6.67
25.0
4.33
16.0
15.33
10.0
6.67
-3.67
10.67
15.33
25.67
0.33
0.0
-4.33
22.0
34.0
25.0
25.0
-7.0
1.0
-0.67
8.0
9.33
-5.33
2.33
7.33
9.67
-2.0
7.67
1.0
-4.67
-2.0
6.0
13.0
5.67
10.67
-6.33
-7.33
-2.0
4.33
2.33
3.0
5.0
-0.67
10.0
2.33
2.67
8.33
2.67
0.33
1.33
2.67
1.33
7.33
9.0
1.33
13.0
-1.0
3.0
-0.33
3.33
3.67
-4.0
-5.67
2.0
1.0
2.33
-0.33
3.67
-3.33
3.67
2.0
5.33
4.67
4.67
-4.0
-0.67
-1.67
2.67
1.67
-2.0
-8.67
4.33
7.0
-3.0
0.33
9.33
-2.67
3.67
6.33
0.67
0.67

File: 11.5.txt
0.0
-82.0
-39.67
4.67
-6.0
-1.33
1.67
-0.33
0.0
-0.33
-0.33
0.0
1.0
0.33
-0.67
-1.33
1.33
-0.67
-2.33
-1.67
5.0
-2.67
-0.33
-5.67
0.33
0.33
-0.67
4.67
-0.67
5.67
3.67
-2.0
-1.33
2.0
-1.67
1.0
-3.33
0.0
0.0
-1.0
-0.33
2.0
5.33
6.0
9.0
-1.0
-0.67
6.0
-0.33
3.33
-4.0
0.67
2.67
2.0
-3.0
1.0
5.33
-0.67
4.0
0.0
1.0
-2.0
0.33
-2.33
1.33
6.33
0.0
-3.33
1.0
2.67
-0.33
1.33
-5.0
-2.33
3.67
0.0
-3.33
-3.0
-1.33
0.67
3.67
3.33
-3.67
0.33
-3.33
0.67
-0.33
0.67
-0.33
-2.0
0.0
-2.67
-3.0
-1.33
-1.33
3.0
8.0
2.0
1.0
-1.0
-4.33
0.0
5.67
-6.0
-1.0
-3.33
-6.0
-8.0
-2.67
-0.33
1.0
-4.33
7.67
8.67
7.67
18.33
38.0
46.0
12.67
4.67
6.67
2.0
1.33
-2.33
-6.33
-8.67
-5.0
-8.33
-0.33
-7.67
-1.33
-1.67
-4.33
7.33
1.0
-3.67
1.67
-1.67
-3.0
-3.0
20.0
5.67
2.0
2.67
5.67
-1.67
7.67
21.33
24.67
17.67
7.33
4.67
5.0
7.67
3.67
8.33
14.0
-2.67
1.0
3.67
4.67
12.33
1.67
8.33
5.33
15.33
-5.0
5.0
5.0
18.0
10.67
5.0
11.67
5.33
12.33
4.0
10.33
11.33
-3.33
7.0
11.0
15.0
7.33
29.67
20.33
25.0
70.67
110.67
127.67
125.0
80.33
34.67
15.0
12.67
6.33
15.0
15.0
22.33
6.67
20.67
1.33
8.33
2.67
12.0
17.33
8.0
13.33
3.0
6.67
1.33
2.67
3.33
6.67
7.33
5.0
16.67
24.0
42.0
22.0
23.0
0.0
19.0
7.33
16.0
6.33
5.67
4.33
15.33
12.67
6.0
6.67
4.0
-0.67
10.0
6.0
3.0
-7.33
2.67
-15.33
-5.33
0.0
11.33
6.33
20.0
1.0
-6.67
6.0
-0.67
4.67
-2.67
2.67
3.33
-1.67
8.67
3.33
9.33
9.0
7.33
9.0
-3.0
7.0
2.67
1.33
-1.33
5.0
4.33
5.0
-5.0
8.33
1.67
6.67
-1.33
5.67
0.0
3.33
7.67
4.67
-7.0
8.33
-1.67
5.67
4.67
-4.0
-1.67
4.33
7.0
4.0
1.33
5.33
-3.67
0.67
3.33
1.67
-0.33

File: 11.25.txt
0.0
-44.0
-44.67
-2.33
9.0
1.67
1.67
0.67
0.0
-0.33
0.67
0.0
0.0
-0.67
0.33
-0.33
0.33
-0.67
-0.33
1.33
3.0
-0.67
1.67
0.33
-0.67
-1.67
3.33
2.67
0.33
1.67
0.67
1.0
8.67
6.0
-2.67
5.0
3.67
2.0
3.0
5.0
7.67
8.0
5.33
-5.0
6.0
5.0
6.33
1.0
-3.33
10.33
5.0
1.67
4.67
3.0
1.0
0.0
5.33
0.33
-3.0
5.0
-1.0
-1.0
1.33
-3.33
1.33
2.33
-2.0
-0.33
4.0
-0.33
3.67
-1.67
-2.0
-1.33
6.67
-4.0
-6.33
-2.0
-0.33
0.67
-3.33
-1.67
-1.67
-1.67
-6.33
4.67
-0.33
-2.33
-0.33
0.0
1.0
-0.67
2.0
-1.33
1.67
-1.0
2.0
-2.0
-4.0
1.0
-1.33
5.0
-2.33
-3.0
3.0
-3.33
-10.0
-11.0
-1.67
-3.33
-5.0
-5.33
-1.33
3.67
6.67
25.33
41.0
32.0
7.67
2.67
7.67
-1.0
0.33
-8.33
1.67
-2.67
0.0
-2.33
3.67
-7.67
-1.33
-7.67
2.67
4.33
6.0
2.33
1.67
0.33
6.0
-2.0
-2.0
-2.33
1.0
9.67
4.67
-5.67
8.67
18.33
28.67
24.67
10.33
7.67
5.0
5.67
4.67
12.33
8.0
11.33
1.0
7.67
12.67
6.33
10.67
12.33
5.33
11.33
4.0
7.0
-2.0
1.0
17.67
7.0
3.67
11.33
9.33
7.0
12.33
14.33
5.67
-1.0
5.0
14.0
7.33
20.67
31.33
40.0
53.67
115.67
127.67
101.0
54.33
35.67
6.0
-7.33
14.33
17.0
16.0
9.33
9.67
7.67
6.33
15.33
-1.33
17.0
4.33
4.0
11.33
2.0
8.67
22.33
6.67
9.33
-2.33
2.33
-7.0
20.67
24.0
20.0
23.0
23.0
18.0
2.0
0.33
14.0
-0.67
-5.33
12.33
4.33
7.67
18.0
5.67
13.0
-6.67
-7.0
8.0
-2.0
-11.33
10.67
-5.33
0.67
-7.0
-8.67
0.33
4.0
0.0
-4.67
10.0
12.33
6.67
7.33
3.67
7.33
13.33
5.67
0.33
0.33
10.0
2.33
8.0
-5.0
4.0
9.67
0.33
10.67
2.0
-2.67
0.0
-2.0
3.33
-3.33
4.67
-1.33
-0.33
1.0
5.33
6.67
4.67
-2.0
-1.67
0.33
2.67
3.67
-4.0
-8.67
5.33
0.0
-1.0
-0.67
-0.67
0.33
-6.33
1.33
5.67
1.67

File: 12.25.txt
0.0
71.0
-14.67
-17.33
-3.0
-0.33
-0.33
-0.33
0.0
0.67
-0.33
0.0
1.0
1.33
-0.67
-0.33
1.33
-0.67
1.67
1.33
0.0
-0.67
-1.33
3.33
1.33
-1.67
5.33
-1.33
6.33
5.67
1.67
-4.0
2.67
6.0
-2.67
-2.0
4.67
0.0
1.0
0.0
-3.33
-1.0
1.33
-4.0
1.0
-1.0
6.33
-1.0
-1.33
2.33
-6.0
7.67
3.67
0.0
0.0
3.0
-3.67
-0.67
-2.0
2.0
1.0
2.0
5.33
-6.33
4.33
6.33
-3.0
-6.33
3.0
3.67
-0.33
0.33
-5.0
-0.33
3.67
-3.0
-2.33
-3.0
-0.33
-1.33
-2.33
2.33
-2.67
2.33
-7.33
-2.33
3.67
1.67
-2.33
3.0
-4.0
-1.67
-4.0
3.67
0.67
0.0
0.0
1.0
-3.0
-3.0
-0.33
5.0
0.67
-2.0
0.0
-2.33
2.0
-9.0
4.33
-1.33
2.0
-0.33
-0.33
0.67
-0.33
10.33
25.0
21.0
10.67
-2.33
7.67
-3.0
-0.67
2.67
-5.33
-0.67
-5.0
-8.33
5.67
7.33
1.67
3.33
1.67
4.33
-1.0
9.33
5.67
1.33
3.0
0.0
9.0
1.67
15.0
7.67
10.67
8.33
6.67
35.33
46.67
22.67
24.33
9.67
15.0
12.67
2.67
-0.67
4.0
4.33
0.0
-7.33
10.67
1.33
-3.33
1.33
-4.67
2.33
3.0
7.0
2.0
11.0
13.67
4.0
5.67
2.33
10.33
3.0
17.33
-3.67
-0.33
1.0
4.0
8.0
5.33
9.67
12.33
33.0
70.67
110.67
148.67
137.0
56.33
35.67
11.0
9.67
5.33
5.0
8.0
9.33
-7.33
14.67
18.33
12.33
-1.33
17.0
20.33
11.0
10.33
7.0
3.67
-5.67
-4.33
1.33
3.67
2.33
-1.0
-2.33
6.0
6.0
14.0
9.0
-12.0
7.0
-5.67
5.0
7.33
8.67
7.33
4.33
-1.33
17.0
-0.33
4.0
7.33
4.0
1.0
12.0
8.67
-0.33
3.67
10.67
-3.0
9.33
0.33
14.0
-7.0
-3.67
6.0
7.33
12.67
1.33
7.67
2.33
-1.67
3.67
2.33
1.33
0.0
7.33
6.0
-5.0
12.0
0.67
-0.67
2.67
-2.0
-1.67
3.0
-1.0
2.33
4.67
-0.33
0.67
0.67
4.0
4.33
3.67
4.67
-1.0
2.33
4.33
-3.33
1.67
-6.0
-2.67
5.33
4.0
4.0
0.33
1.33
-0.67
0.67
-2.67
0.67
-1.33