Folder: EDX-Concrete-Analysis/EDX Back Ups and Old Files/Spectra copy 3.3.23/Samples/High pH SF 60C 6d

Note: README.md
This is Anthony's repository for doing all sorts of Energy Dispersive X-ray Analysis on concrete samples.

File: 6.5.txt
0.0
-81.33
-24.67
9.33
3.33
-2.0
-0.67
1.0
0.0
-0.33
0.0
1.0
-0.33
-0.33
1.67
-2.0
2.0
1.33
-1.33
-2.67
2.0
4.0
-5.67
3.33
-1.33
0.0
3.67
0.33
2.0
2.33
11.33
8.0
-2.33
2.33
-2.0
-3.0
4.67
3.0
2.33
7.0
1.67
0.67
-6.0
0.0
5.0
6.67
7.0
-0.67
4.33
9.33
9.33
9.0
8.33
3.0
4.67
-0.67
-3.0
1.67
-2.0
-1.0
4.67
3.33
1.0
-4.67
-1.67
3.33
6.33
1.0
0.0
-1.33
-3.67
-5.67
-6.0
4.67
-4.67
-2.33
0.33
4.67
3.0
2.0
2.0
3.33
-2.0
0.33
2.0
5.67
-1.0
-2.0
0.33
-1.33
1.0
-4.33
-5.33
-1.33
-1.67
4.33
-2.0
-4.67
-5.67
-0.67
-2.33
-4.0
-5.0
5.33
-3.67
-5.0
-2.0
0.0
-6.67
0.67
-5.0
-6.67
-3.33
-2.0
6.0
14.67
16.0
12.0
4.67
-0.67
-10.0
0.33
-8.33
-13.33
-0.33
-10.0
0.0
-1.67
-6.0
-1.0
-4.67
-11.67
-4.33
-8.67
-5.33
-1.33
-1.67
-5.33
-5.67
-4.67
-13.0
-10.0
-8.33
0.0
1.33
5.33
-6.33
3.33
13.67
-1.67
-1.33
10.0
11.0
-3.0
0.67
1.0
3.67
0.67
13.33
5.67
-2.67
5.33
5.33
4.0
-11.67
4.0
8.0
3.33
17.33
0.0
3.33
9.67
3.0
3.0
9.67
10.67
11.33
0.0
3.67
-2.67
10.67
3.67
19.0
23.0
8.33
21.33
32.33
79.0
99.0
68.33
38.67
7.33
18.67
7.33
9.0
4.0
-3.33
6.33
18.0
8.33
7.0
10.67
12.67
4.0
12.0
8.0
15.67
-3.0
11.67
12.33
10.33
8.67
5.0
13.33
-4.0
21.67
14.67
31.33
31.67
32.0
10.33
3.0
2.0
-9.0
5.0
3.33
8.33
10.67
15.0
3.67
5.33
1.0
11.0
-0.33
-6.0
-3.67
3.33
3.0
-7.33
1.33
-1.67
6.67
-1.67
6.33
1.33
2.67
4.67
7.67
3.67
18.67
-4.67
-1.67
4.67
7.0
4.67
6.33
0.33
5.67
3.33
10.67
0.33
8.33
6.33
-2.67
2.0
8.33
-4.67
4.0
-1.0
-4.0
3.0
0.67
0.0
0.0
7.67
6.33
-2.0
1.67
6.67
14.33
-1.0
0.0
-3.33
8.0
1.67
-4.67
0.0
1.67
1.67
-0.33
-0.67
2.67
2.0
11.67

File: 6.25.txt
0.0
-34.33
-5.67
3.33
0.33
-2.0
0.33
1.0
0.0
-0.33
1.0
2.0
-0.33
-1.33
-0.33
-1.0
0.0
1.33
0.67
-1.67
3.0
-2.0
4.33
0.33
-1.33
9.0
6.67
-5.67
0.0
10.33
9.33
9.0
3.67
1.33
1.0
-4.0
7.67
-1.0
2.33
3.0
5.67
4.67
0.0
-1.0
3.0
5.67
6.0
5.33
1.33
8.33
-0.67
1.0
7.33
10.0
3.67
5.33
0.0
-3.33
-4.0
2.0
-1.33
-1.67
9.0
-4.67
-0.67
3.33
7.33
3.0
1.0
4.67
-2.67
0.33
0.0
0.67
-2.67
0.67
-1.67
1.67
-3.0
3.0
0.0
0.33
5.0
1.33
-4.0
2.67
-1.0
0.0
-2.67
-2.33
-1.0
-2.33
2.67
-2.33
2.33
0.33
3.0
-3.67
-3.67
-2.67
-5.33
-2.0
-5.0
4.33
-6.67
-2.0
-7.0
0.0
-2.67
-2.33
-5.0
-4.67
-5.33
-10.0
-1.0
13.67
25.0
9.0
6.67
-2.67
-5.0
0.33
-6.33
-14.33
-3.33
-7.0
-9.0
3.33
-2.0
-8.0
-4.67
-1.67
4.67
-11.67
-2.33
-5.33
-4.67
-4.33
1.33
-0.67
0.0
-10.0
-3.33
-8.0
-6.67
-4.67
0.67
10.33
19.67
13.33
-3.33
0.0
-3.0
-3.0
7.67
12.0
-0.33
-2.33
3.33
-0.33
-3.67
11.33
3.33
9.0
-9.67
4.0
-4.0
-1.67
-0.67
7.0
4.33
4.67
5.0
-11.0
6.67
11.67
3.33
2.0
5.67
11.33
2.67
5.67
4.0
23.0
10.33
25.33
33.33
57.0
93.0
89.33
45.67
19.33
12.67
12.33
12.0
0.0
-6.33
14.33
14.0
9.33
7.0
1.67
10.67
0.0
11.0
0.0
7.67
18.0
4.67
10.33
8.33
8.67
9.0
8.33
10.0
14.67
9.67
28.33
17.67
18.0
8.33
10.0
9.0
-7.0
6.0
1.33
9.33
-0.33
-8.0
14.67
12.33
19.0
1.0
9.67
11.0
2.33
13.33
12.0
-8.33
2.33
2.33
0.67
-9.67
7.33
0.33
-4.33
-2.33
3.67
6.67
6.67
2.33
-3.67
17.67
6.0
1.67
7.33
1.33
-2.33
6.33
5.67
8.33
5.33
4.33
1.33
0.0
8.33
3.33
6.0
1.0
5.0
4.0
-0.33
4.0
1.0
4.67
2.33
-1.0
5.67
-4.33
1.33
5.0
7.0
-3.33
3.0
-4.33
-3.67
-6.0
9.67
-2.33
6.67
3.33
1.67
4.0
7.67

File: 6.75.txt
0.0
-0.33
57.33
12.33
1.33
-3.0
-0.67
0.0
0.0
-0.33
0.0
3.0
0.67
-1.33
0.67
-2.0
2.0
0.33
-0.33
1.33
2.0
-1.0
-1.67
5.33
4.67
2.0
5.67
1.33
0.0
3.33
8.33
2.0
-0.33
7.33
1.0
3.0
-4.33
2.0
3.33
5.0
0.67
3.67
-3.0
3.0
-1.0
0.67
8.0
4.33
0.33
0.33
-3.67
7.0
4.33
4.0
4.67
4.33
3.0
2.67
-7.0
0.0
-0.33
2.33
-1.0
-2.67
-1.67
-0.67
0.33
2.0
-4.0
-3.33
-1.67
3.33
-5.0
3.67
-0.67
-0.33
3.33
3.67
-1.0
4.0
0.0
0.33
-2.0
1.33
-4.0
-1.33
0.0
1.0
-2.67
-2.33
1.0
-2.33
2.67
-2.33
-0.67
0.33
0.0
-4.67
-5.67
-2.67
-5.33
1.0
3.0
3.33
-4.67
-3.0
-2.0
-3.0
0.33
3.67
-1.0
-5.67
-6.33
-5.0
5.0
14.67
30.0
9.0
-0.33
5.33
-1.0
1.33
-2.33
-1.33
-7.33
-10.0
1.0
4.33
-3.0
-17.0
-6.67
1.33
-6.33
-3.67
-1.33
-7.33
1.33
-2.33
-1.67
-2.67
-5.0
-7.0
-5.33
-8.0
1.33
2.33
-4.33
24.33
12.67
10.33
3.67
4.0
-7.0
1.0
-1.33
-6.0
0.67
-2.33
5.33
6.67
-3.67
5.33
-4.67
1.0
2.33
11.0
-2.0
3.33
12.33
18.0
5.33
7.67
13.0
3.0
2.67
7.67
4.33
1.0
9.67
2.33
10.67
18.67
7.0
18.0
3.33
23.33
33.33
76.0
87.0
72.33
46.67
14.33
18.67
22.33
13.0
11.0
1.67
8.33
23.0
-1.67
-8.0
10.67
7.67
9.0
3.0
17.0
3.67
-3.0
-1.33
11.33
3.33
1.67
7.0
14.33
8.0
4.67
36.67
19.33
21.67
31.0
4.33
12.0
-6.0
-2.0
11.0
4.33
15.33
9.67
17.0
23.67
8.33
7.0
4.0
-3.33
1.0
0.33
5.33
8.0
-12.33
-4.67
-5.67
1.67
-0.67
3.33
1.33
-1.33
5.67
3.67
8.67
7.67
7.33
-6.67
8.67
-1.0
5.67
-2.67
0.33
0.67
-5.67
3.67
7.33
-4.67
1.33
-1.67
-3.0
5.33
-0.67
-6.0
3.0
-7.0
11.0
-0.33
6.0
6.0
3.67
5.33
3.0
-1.33
-1.33
8.33
5.0
5.0
2.67
10.0
-0.33
1.33
-2.0
8.67
-0.33
2.67
-2.67
0.67
2.0
2.67

File: 7.25.txt
0.0
-97.33
-26.67
-17.67
-12.67
2.0
-0.67
0.0
0.0
-0.33
0.0
1.0
1.67
-1.33
0.67
0.0
1.0
1.33
-3.33
-2.67
-4.0
1.0
3.33
0.33
0.67
3.0
4.67
10.33
2.0
1.33
5.33
11.0
2.67
6.33
0.0
-3.0
-2.33
-7.0
5.33
11.0
4.67
1.67
-2.0
3.0
12.0
2.67
9.0
6.33
1.33
5.33
0.33
9.0
6.33
3.0
6.67
2.33
-2.0
10.67
5.0
3.0
0.67
1.33
0.0
2.33
-1.67
1.33
3.33
3.0
-3.0
-2.33
0.33
-3.67
-1.0
-0.33
-2.67
-0.33
-3.67
0.67
3.0
2.0
4.0
3.33
-2.0
-1.67
-4.0
3.67
-2.0
-1.0
1.33
-2.33
5.0
2.67
0.67
1.67
-0.67
1.33
-3.0
-1.67
-1.67
-0.67
-0.33
3.0
-3.0
0.33
-5.67
-4.0
-7.0
-3.0
0.33
2.67
0.0
-1.67
-5.33
-5.0
4.0
10.67
17.0
13.0
-4.33
-0.67
-2.0
-1.67
-7.33
-7.33
-4.33
-5.0
-1.0
-0.67
-11.0
-5.0
0.33
-10.67
-12.33
-12.67
-3.33
-0.33
2.33
-3.33
0.33
-5.67
-7.0
-9.0
-7.33
-6.0
-5.67
-5.67
3.67
22.33
3.67
1.33
3.67
7.0
-4.0
0.0
4.67
4.0
2.67
-2.33
-4.67
2.67
8.33
8.33
-2.67
-2.0
-1.67
1.0
-3.0
-1.67
12.33
8.0
-1.67
4.67
9.0
-2.0
13.67
11.67
3.33
4.0
0.67
4.33
9.67
-0.33
8.0
22.0
4.33
34.33
39.33
64.0
97.0
76.33
42.67
24.33
10.67
8.33
1.0
6.0
3.67
10.33
20.0
11.33
10.0
22.67
8.67
2.0
10.0
6.0
2.67
5.0
1.67
15.33
0.33
12.67
3.0
8.33
8.0
15.67
24.67
34.33
17.67
34.0
2.33
18.0
8.0
-2.0
16.0
2.33
10.33
-2.33
-2.0
6.67
22.33
12.0
0.0
0.67
1.0
5.33
3.33
10.0
0.67
5.33
-0.67
4.67
-11.67
-1.67
6.33
0.67
2.67
9.67
6.67
3.67
-3.67
2.33
11.67
-4.0
6.67
-5.67
4.33
7.67
-0.67
10.67
0.33
5.33
6.33
0.33
-2.0
5.33
-5.67
3.0
1.0
-5.0
12.0
-0.33
3.0
4.0
5.67
-2.67
-3.0
-2.33
0.67
3.33
1.0
1.0
-7.33
6.0
0.67
7.33
2.0
2.67
-5.33
0.67
-3.67
1.67
2.0
1.67

File: 8.0.txt
0.0
30.67
54.33
4.33
9.33
5.0
-0.67
0.0
1.0
-0.33
0.0
0.0
-0.33
-1.33
-0.33
-2.0
1.0
0.33
-0.33
-1.67
3.0
1.0
1.33
5.33
1.67
1.0
4.67
1.33
-1.0
5.33
5.33
14.0
3.67
6.33
-1.0
0.0
6.67
1.0
1.33
1.0
7.67
14.67
3.0
5.0
1.0
-2.33
4.0
1.33
6.33
4.33
-0.67
7.0
4.33
1.0
3.67
0.33
-3.0
6.67
-4.0
-4.0
6.67
-2.67
-1.0
2.33
-2.67
4.33
4.33
3.0
2.0
0.67
-1.67
-3.67
-7.0
4.67
-4.67
4.67
-1.67
2.67
1.0
2.0
0.0
-1.67
2.0
0.33
-1.0
-0.33
3.0
-2.0
3.33
-2.33
2.0
-3.33
-5.33
-1.33
3.33
0.33
2.0
-0.67
-1.67
-0.67
-0.33
2.0
-2.0
0.33
-4.67
-3.0
-1.0
1.0
-4.67
2.67
-6.0
-4.67
-9.33
3.0
10.0
14.67
38.0
28.0
-1.33
1.33
2.0
-3.67
-4.33
-10.33
2.67
0.0
4.0
-4.67
-1.0
-5.0
-8.67
-4.67
-7.33
-14.67
-9.33
-10.33
-3.67
-7.33
-0.67
-0.67
-7.0
-9.0
-0.33
-4.0
-8.67
0.33
3.67
11.33
17.67
10.33
-2.33
1.0
2.0
-4.0
-3.33
-5.0
-1.33
1.67
5.33
7.67
1.33
5.33
-0.67
-8.0
1.33
9.0
2.0
-1.67
3.33
-2.0
2.33
-1.33
1.0
0.0
10.67
6.67
10.33
3.0
4.67
1.33
10.67
4.67
8.0
14.0
25.33
33.33
31.33
74.0
92.0
81.33
31.67
14.33
13.67
7.33
6.0
1.0
1.67
17.33
11.0
12.33
16.0
10.67
4.67
6.0
8.0
18.0
1.67
3.0
6.67
1.33
5.33
-1.33
-5.0
4.33
12.0
11.67
25.67
27.33
23.67
22.0
3.33
11.0
1.0
-12.0
6.0
7.33
6.33
7.67
10.0
9.67
8.33
14.0
5.0
-0.33
-5.0
5.33
4.33
23.0
4.67
-2.67
-4.67
6.67
-0.67
9.33
-0.67
6.67
11.67
1.67
11.67
8.67
6.33
0.33
2.67
0.0
10.67
0.33
3.33
10.67
6.33
5.67
1.33
3.33
2.33
3.33
8.0
4.33
7.33
-9.0
4.0
-9.0
3.0
-1.33
0.0
0.0
4.67
2.33
1.0
1.67
-0.33
6.33
-5.0
4.0
-3.33
1.0
-0.33
-3.67
7.0
4.67
-1.33
2.67
-4.67
2.67
2.0
5.67

File: 8.5.txt
0.0
-131.33
-74.67
-5.67
-17.67
2.0
-0.67
0.0
1.0
-0.33
0.0
0.0
-0.33
-0.33
0.67
1.0
-1.0
3.33
0.67
0.33
-2.0
-2.0
-2.67
0.33
3.67
-5.0
2.67
-1.67
-3.0
5.33
6.33
5.0
-1.33
1.33
3.0
-4.0
-0.33
0.0
1.33
1.0
-1.33
3.67
-7.0
1.0
6.0
2.67
10.0
1.33
-2.67
7.33
8.33
1.0
3.33
4.0
3.67
-6.67
3.0
3.67
-1.0
1.0
2.67
7.33
1.0
-1.67
3.33
0.33
5.33
-1.0
0.0
-0.33
-2.67
-0.67
-3.0
-0.33
-1.67
0.67
-2.67
0.67
-2.0
2.0
-2.0
-1.67
-1.0
1.33
-1.0
-1.33
-5.0
-2.0
2.33
2.67
1.0
-3.33
-1.33
-3.33
-2.67
-1.67
-2.0
-2.67
-1.67
1.33
0.67
0.0
3.0
1.33
-8.67
-3.0
1.0
0.0
-4.67
2.67
-2.0
-1.67
2.67
0.0
9.0
14.67
31.0
17.0
4.67
-1.67
-4.0
-1.67
-0.33
-10.33
-7.33
-3.0
-2.0
-8.67
-3.0
-7.0
-8.67
-2.67
-9.33
-8.67
-6.33
-6.33
-4.67
-8.33
-2.67
1.33
-1.0
-5.0
-8.33
-3.0
1.33
-5.67
-3.33
12.33
12.67
20.33
2.67
14.0
-3.0
0.0
-1.33
0.0
8.67
1.67
-3.67
-1.33
-5.67
7.33
6.33
4.0
-1.67
4.0
2.0
-3.67
19.33
4.0
2.33
5.67
5.0
-5.0
8.67
4.67
6.33
6.0
1.67
2.33
4.67
5.67
15.0
5.0
14.33
37.33
41.33
92.0
102.0
97.33
52.67
14.33
22.67
10.33
9.0
0.0
2.67
-1.67
7.0
7.33
7.0
10.67
-0.33
5.0
14.0
-1.0
6.67
4.0
1.67
6.33
3.33
4.67
8.0
15.33
13.0
8.67
20.67
28.33
26.67
7.0
11.33
0.0
-3.0
-1.0
6.0
0.33
6.33
10.67
-2.0
10.67
10.33
12.0
1.0
3.67
-7.0
15.33
2.33
10.0
-0.33
-6.67
-1.67
-4.33
0.33
7.33
3.33
0.67
9.67
2.67
9.67
-3.33
2.33
8.33
5.67
17.0
1.67
5.33
-1.67
-1.33
-2.67
18.67
5.33
6.33
1.33
-5.67
0.0
-0.67
3.33
1.0
-1.0
-8.0
0.0
-0.33
3.0
-4.0
9.67
-2.67
-4.0
3.67
6.67
6.33
3.0
4.0
-0.33
2.0
-1.33
1.33
0.0
-2.33
-1.33
-0.33
1.33
1.67
0.0
0.67

File: 9.0.txt
0.0
-59.33
3.33
13.33
-14.67
-4.0
1.33
0.0
0.0
-0.33
0.0
1.0
-0.33
-1.33
-0.33
-1.0
2.0
0.33
-0.33
3.33
0.0
2.0
1.33
0.33
-1.33
14.0
0.67
-0.67
-4.0
10.33
4.33
2.0
2.67
-1.67
6.0
-1.0
2.67
2.0
9.33
4.0
-0.33
1.67
-4.0
1.0
-1.0
3.67
3.0
3.33
-4.67
3.33
4.33
3.0
5.33
4.0
0.67
3.33
-2.0
5.67
1.0
0.0
1.67
-1.67
-3.0
-0.67
3.33
2.33
2.33
2.0
-1.0
-3.33
1.33
-2.67
0.0
1.67
-7.67
-2.33
-4.67
1.67
0.0
1.0
-1.0
-0.67
0.0
0.33
-1.0
2.67
2.0
2.0
-0.67
-0.33
-2.0
-2.33
-4.33
-0.33
1.33
-2.67
-5.0
-2.67
-3.67
-0.67
-1.33
0.0
-7.0
-1.67
-5.67
-6.0
-10.0
-3.0
-3.67
3.67
-2.0
-9.67
-2.33
-2.0
4.0
10.67
24.0
13.0
3.67
1.33
-10.0
1.33
-9.33
-5.33
-9.33
0.0
5.0
-1.67
-5.0
-3.0
-7.67
-2.67
-10.33
-10.67
-6.33
1.67
1.33
-9.33
-3.67
0.33
-3.0
-12.0
-4.33
-2.0
3.33
0.33
-3.33
15.33
23.67
9.33
3.67
6.0
8.0
5.0
-1.33
-6.0
-1.33
6.67
3.33
3.67
-2.67
6.33
7.33
13.0
6.33
0.0
-2.0
-4.67
1.33
13.0
2.33
4.67
2.0
-4.0
8.67
2.67
-3.67
2.0
-3.33
9.33
4.67
2.67
1.0
15.0
14.33
26.33
57.33
114.0
130.0
108.33
57.67
28.33
22.67
3.33
6.0
3.0
-4.33
3.33
4.0
9.33
13.0
8.67
2.67
2.0
10.0
10.0
8.67
12.0
-1.33
11.33
2.33
8.67
9.0
14.33
18.0
0.67
13.67
29.33
5.67
30.0
16.33
15.0
2.0
-3.0
5.0
-2.67
11.33
3.67
-2.0
16.67
20.33
10.0
6.0
-1.33
7.0
6.33
-4.67
21.0
0.67
-5.67
1.33
-3.33
1.33
11.33
8.33
-0.33
2.67
2.67
16.67
9.67
0.33
-0.67
14.67
5.0
11.67
-2.67
10.33
-0.33
-5.67
3.67
4.33
7.33
6.33
-3.67
-2.0
-1.67
1.33
1.0
1.0
1.0
7.0
1.67
-4.0
4.0
7.67
6.33
6.0
-3.33
3.67
6.33
0.0
0.0
-2.33
0.0
3.67
3.33
-1.0
7.67
-0.33
0.67
-2.67
8.67
6.0
-0.33

File: 9.5.txt
0.0
-48.33
-13.67
33.33
12.33
-3.0
0.33
0.0
0.0
-0.33
0.0
0.0
-0.33
-0.33
0.67
0.0
-1.0
3.33
-3.33
0.33
0.0
-3.0
3.33
1.33
-0.33
0.0
5.67
-0.67
0.0
12.33
5.33
3.0
4.67
3.33
2.0
-2.0
-0.33
-3.0
7.33
6.0
5.67
2.67
-3.0
-3.0
0.0
-0.33
-1.0
0.33
-0.67
0.33
7.33
2.0
-1.67
3.0
1.67
-4.67
-3.0
4.67
-2.0
2.0
1.67
0.33
-3.0
-3.67
3.33
0.33
1.33
2.0
-4.0
0.67
-5.67
-0.67
0.0
-0.33
-0.67
-0.33
-1.67
-0.33
5.0
4.0
1.0
0.33
-1.0
-2.67
-2.0
1.67
-1.0
1.0
-2.67
-2.33
3.0
-3.33
-3.33
3.67
0.33
-2.67
1.0
-2.67
-6.67
0.33
-1.33
6.0
-7.0
2.33
-9.67
-1.0
4.0
-3.0
-7.67
2.67
4.0
-4.67
0.67
-1.0
6.0
0.67
16.0
13.0
-0.33
-1.67
-9.0
-1.67
-8.33
-5.33
-11.33
-7.0
-2.0
0.33
-2.0
-4.0
-3.67
-5.67
-8.33
-7.67
-5.33
-9.33
-4.67
0.67
-5.67
-1.67
-2.0
-8.0
-6.33
-8.0
-4.67
-0.67
4.67
12.33
17.67
10.33
-6.33
5.0
1.0
2.0
-1.33
-1.0
6.67
10.67
2.33
6.67
-12.67
6.33
-3.67
-2.0
0.33
2.0
-1.0
5.33
11.33
5.0
1.33
8.67
12.0
2.0
9.67
4.67
1.33
6.0
0.67
5.33
12.67
-5.33
9.0
11.0
8.33
21.33
56.33
96.0
133.0
105.33
74.67
15.33
13.67
8.33
12.0
6.0
-0.33
2.33
15.0
6.33
-2.0
7.67
3.67
11.0
5.0
7.0
6.67
10.0
-3.33
7.33
13.33
-5.33
8.0
6.33
1.0
3.67
12.67
26.33
23.67
22.0
24.33
5.0
-2.0
-4.0
2.0
8.33
25.33
1.67
2.0
7.67
12.33
22.0
-1.0
9.67
2.0
2.33
9.33
6.0
9.67
1.33
4.33
-1.33
-1.67
7.33
-8.67
5.67
10.67
3.67
6.67
2.67
5.33
-6.67
10.67
8.0
10.67
-0.67
1.33
4.67
-4.67
4.67
2.33
-1.67
2.33
-6.67
-2.0
2.33
3.33
1.0
-1.0
-1.0
1.0
0.67
-2.0
3.0
12.67
-4.67
-2.0
-1.33
3.67
7.33
0.0
0.0
4.67
2.0
0.67
6.33
1.0
5.67
-3.33
0.67
-2.67
1.67
-1.0
3.67

File: 10.5.txt
0.0
10.67
23.33
15.33
3.33
-3.0
-0.67
0.0
0.0
-0.33
1.0
1.0
-0.33
-1.33
2.67
-1.0
3.0
1.33
0.67
2.33
-4.0
-5.0
4.33
-4.67
-1.33
0.0
12.67
1.33
-3.0
1.33
-0.67
4.0
0.67
3.33
9.0
0.0
-1.33
-2.0
5.33
2.0
-1.33
3.67
-1.0
1.0
1.0
1.67
8.0
9.33
1.33
2.33
-0.67
8.0
0.33
7.0
-2.33
1.33
6.0
1.67
0.0
8.0
0.67
2.33
1.0
-2.67
-1.67
3.33
1.33
4.0
-3.0
-1.33
3.33
-1.67
-6.0
1.67
-5.67
-0.33
-1.67
1.67
2.0
-2.0
3.0
10.33
5.0
-2.67
-2.0
-3.33
-3.0
6.0
-0.67
-4.33
1.0
-5.33
-3.33
-4.33
-0.67
-6.67
-4.0
5.33
-0.67
-0.67
-6.33
-1.0
-1.0
1.33
-8.67
-4.0
-1.0
-6.0
-7.67
0.67
1.0
-2.67
-11.33
-1.0
10.0
8.67
2.0
4.0
-4.33
-2.67
-10.0
-6.67
-2.33
-7.33
-5.33
-9.0
10.0
-1.67
-1.0
-1.0
-0.67
2.33
-10.33
-8.67
5.67
-0.33
1.33
2.67
-5.67
-0.67
-9.0
-13.0
-6.33
-4.0
-6.67
0.33
2.67
31.33
25.67
18.33
6.67
7.0
3.0
0.0
-3.33
2.0
-4.33
7.67
2.33
3.67
-1.67
8.33
4.33
-4.0
-4.67
8.0
6.0
0.33
-2.67
4.0
-0.67
6.67
3.0
-5.0
9.67
3.67
6.33
2.0
4.67
16.33
-4.33
4.67
5.0
9.0
11.33
51.33
78.33
148.0
168.0
131.33
59.67
22.33
16.67
20.33
4.0
-6.0
-11.33
10.33
16.0
22.33
15.0
6.67
4.67
4.0
8.0
11.0
6.67
3.0
5.67
9.33
11.33
-2.33
8.0
2.33
15.0
-5.33
0.67
4.33
5.67
8.0
19.33
12.0
-8.0
-2.0
6.0
6.33
4.33
24.67
21.0
23.67
18.33
19.0
4.0
10.67
-1.0
-1.67
6.33
11.0
7.67
-6.67
6.33
1.67
-3.67
-3.67
9.33
4.67
2.67
-2.33
9.67
7.67
-1.67
2.33
2.67
-2.0
13.67
1.33
8.33
8.67
-4.67
8.67
-0.67
0.33
4.33
-3.67
4.0
7.33
0.33
-8.0
3.0
-4.0
-1.0
-1.33
1.0
6.0
1.67
-0.67
-5.0
4.67
-1.33
6.33
3.0
-1.0
-3.33
4.0
5.67
3.33
-1.0
2.67
-7.33
-0.33
-2.67
3.67
-4.0
-0.33

File: 10.75.txt
0.0
-89.33
67.33
28.33
9.33
-3.0
0.33
0.0
1.0
-0.33
0.0
1.0
0.67
-1.33
0.67
-2.0
1.0
0.33
-3.33
-3.67
1.0
6.0
-1.67
4.33
5.67
-1.0
4.67
2.33
2.0
-0.67
11.33
2.0
5.67
-0.67
4.0
-4.0
1.67
-6.0
4.33
6.0
9.67
5.67
-3.0
2.0
-4.0
2.67
9.0
-0.67
3.33
2.33
1.33
-1.0
-0.67
4.0
7.67
-1.67
-1.0
-0.33
-1.0
-3.0
-2.33
2.33
4.0
-2.67
0.33
-0.67
-0.67
2.0
4.0
-4.33
-4.67
-5.67
-6.0
-0.33
-2.67
1.67
-4.67
0.67
-2.0
5.0
-1.0
1.33
3.0
-4.67
-3.0
-1.33
-1.0
0.0
-1.67
1.67
7.0
0.67
-5.33
-0.33
6.33
-0.67
-5.0
-2.67
-2.67
-1.67
-4.33
-2.0
-4.0
-0.67
-8.67
-2.0
-2.0
-5.0
-4.67
4.67
-6.0
-0.67
-4.33
-10.0
-2.0
-4.33
5.0
-3.0
-4.33
0.33
-3.0
3.33
-7.33
-6.33
-11.33
-8.0
7.0
-3.67
1.0
-11.0
-4.67
10.33
-7.33
-10.67
-3.33
-1.33
-4.67
-2.33
3.33
-2.67
-5.0
-14.0
-4.33
-6.0
0.33
4.33
11.67
19.33
17.67
27.33
-1.33
3.0
4.0
2.0
9.67
-3.0
3.67
0.67
1.33
5.67
7.33
3.33
1.33
4.0
-2.67
5.0
-1.0
9.33
12.33
18.0
-6.67
5.67
-2.0
0.0
10.67
7.67
4.33
-3.0
9.67
4.33
0.67
-0.33
4.0
1.0
18.33
54.33
77.33
183.0
193.0
161.33
79.67
23.33
5.67
15.33
9.0
0.0
-17.33
3.33
4.0
14.33
3.0
3.67
5.67
19.0
8.0
3.0
6.67
5.0
-4.33
9.33
6.33
0.67
7.0
6.33
4.0
5.67
3.67
13.33
2.67
5.0
-0.67
20.0
5.0
-1.0
0.0
7.33
-1.67
-2.33
10.0
20.67
32.33
9.0
17.0
1.67
6.0
4.33
-5.67
7.0
8.67
-5.67
0.33
-0.33
-0.67
0.33
8.33
2.67
11.67
6.67
5.67
17.67
3.33
1.33
14.67
10.0
0.67
2.33
6.33
15.67
0.33
3.67
2.33
3.33
-1.67
-10.67
-3.0
6.33
0.33
-12.0
-2.0
-1.0
1.0
2.67
7.0
1.0
6.67
2.33
-3.0
-2.33
3.67
2.33
1.0
9.0
5.67
4.0
1.67
-0.67
0.0
3.67
-7.33
-0.33
-2.67
3.67
3.0
3.67