Folder: EDX-Concrete-Analysis/EDX Back Ups and Old Files/Spectra copy 3.3.23/Samples/High pH BL Ref

Note: README.md
This is Anthony's repository for doing all sorts of Energy Dispersive X-ray Analysis on concrete samples.

File: 8.25.txt
0.0
81.67
36.67
-4.67
2.33
-1.33
-0.67
0.0
0.33
0.0
0.0
0.0
0.0
0.0
-1.0
-2.67
-2.33
0.0
-1.33
1.67
5.67
-5.67
3.33
6.0
-4.0
-2.0
3.33
-6.33
7.0
-0.33
5.33
-0.33
3.0
-1.33
6.0
2.67
0.0
4.0
6.0
-0.67
-1.67
4.0
3.33
5.67
0.33
6.0
8.0
4.0
-0.33
7.67
1.67
6.0
0.33
2.0
5.0
0.67
0.33
0.67
-1.0
2.0
-1.67
-2.33
3.0
-0.67
2.67
-0.67
1.67
0.0
4.33
-0.33
-3.67
2.33
-2.0
-2.0
3.33
1.0
-0.33
-5.67
3.0
-2.0
-0.33
4.67
2.0
3.33
5.0
0.0
-7.67
0.0
-1.0
1.0
1.33
-3.0
-5.33
-0.33
1.33
2.0
2.67
1.67
3.0
-3.33
-3.67
-4.0
-0.33
-4.33
0.33
0.67
-0.33
-1.67
-1.0
-2.33
-7.0
2.67
0.0
0.67
8.33
7.33
17.33
26.0
1.33
-8.33
-2.67
-4.33
1.0
-8.33
5.0
-2.33
-1.0
-7.67
-3.0
-4.0
-4.33
-1.67
7.0
-1.67
-3.0
-1.33
-2.33
-2.33
4.33
0.33
0.67
1.33
8.33
-2.0
4.0
3.0
1.0
9.0
14.33
3.0
12.67
8.67
6.0
5.67
-1.33
4.33
5.0
14.33
0.0
2.0
10.67
-3.0
6.0
1.67
7.67
7.33
1.67
7.0
0.33
16.0
15.67
10.33
-0.33
2.67
15.33
1.33
10.67
15.0
8.0
10.33
5.0
7.0
7.33
18.33
8.33
25.33
30.67
71.33
96.67
58.67
40.67
31.67
4.67
13.67
14.67
18.33
12.67
0.0
14.67
-8.33
11.67
17.0
19.33
12.0
16.67
29.67
3.33
5.33
7.0
24.0
-5.33
2.33
-3.33
2.67
7.0
19.67
21.33
21.0
8.33
20.33
21.67
12.33
7.67
12.67
11.67
9.0
9.0
4.0
1.0
14.0
16.0
13.33
-12.0
-2.0
-2.33
-0.67
8.33
0.33
-0.33
1.33
-1.33
8.0
0.33
2.33
9.67
-1.0
6.33
2.67
3.33
8.33
5.0
-3.67
5.0
9.67
6.0
2.67
-2.0
-1.33
4.67
-0.33
-1.67
6.67
0.67
-2.0
-5.0
-0.33
0.33
8.33
9.33
3.67
-5.0
3.67
7.0
3.0
-0.33
9.33
3.33
-3.67
-1.33
-3.0
3.0
1.33
1.0
7.33
4.0
0.0
-3.67
5.0
5.33
0.33
0.0
4.33
7.0
-1.0

File: 9.5.txt
0.0
72.67
49.67
0.33
-1.67
-2.33
-0.67
1.0
0.33
0.0
0.0
0.0
-1.0
0.0
1.0
-0.67
-3.33
-1.0
-0.33
-2.33
-4.33
-3.67
3.33
4.0
0.0
-2.0
3.33
-5.33
7.0
4.67
5.33
-0.33
6.0
0.67
2.0
0.67
-1.0
0.0
4.0
2.33
-0.67
-4.0
-0.67
-0.33
4.33
-1.0
0.0
4.0
-1.33
1.67
-4.33
3.0
3.33
-1.0
4.0
-0.33
5.33
0.67
1.0
0.0
1.33
-1.33
1.0
-3.67
-2.33
0.33
-0.33
1.0
-2.67
2.67
-1.67
3.33
-1.0
1.0
1.33
4.0
-3.33
1.33
0.0
-2.0
-1.33
2.67
0.0
3.33
0.0
-2.0
-5.67
-4.0
0.0
1.0
-1.67
-1.0
-1.33
0.67
-0.67
3.0
3.67
-0.33
-3.0
3.67
-6.67
0.0
3.67
0.67
-0.67
-2.33
-4.33
-0.67
-1.0
-3.33
-4.0
-1.33
1.0
-4.33
7.33
18.33
23.33
28.0
-2.67
6.67
2.33
-3.33
-3.0
-2.33
0.0
0.67
6.0
6.33
5.0
-3.0
-4.33
-9.67
2.0
-2.67
4.0
-9.33
-0.33
8.67
-4.67
-2.67
-1.33
2.33
5.33
3.0
-5.0
0.0
6.0
13.0
21.33
13.0
4.67
6.67
2.0
1.67
1.67
3.33
12.0
5.33
4.0
-4.0
4.67
4.0
12.0
1.67
0.67
4.33
-0.33
10.0
2.33
1.0
-7.33
7.33
3.67
1.67
6.33
9.33
4.67
11.0
5.0
11.33
4.0
13.0
8.33
21.33
26.33
29.33
63.67
84.33
97.67
69.67
36.67
21.67
8.67
16.67
10.67
0.33
-1.33
8.0
9.67
3.67
2.67
14.0
5.33
14.0
15.67
4.67
5.33
9.33
17.0
10.0
6.67
8.33
-4.33
13.67
8.0
10.67
23.33
31.0
24.33
6.33
21.67
0.33
-5.33
4.67
8.67
6.0
9.0
0.0
14.0
11.0
7.0
14.33
6.0
7.0
1.67
8.33
7.33
-3.67
9.67
4.33
9.67
-3.0
3.33
2.33
-3.33
1.0
3.33
1.67
3.33
15.33
2.0
-3.67
-5.0
0.67
2.0
4.67
-6.0
1.67
3.67
5.67
2.33
5.67
-4.33
5.0
9.0
-0.33
2.33
0.33
1.33
-3.33
-1.0
-4.33
2.0
0.0
2.67
5.33
-1.67
1.33
-2.33
-1.0
3.0
-0.67
3.0
8.33
-3.0
1.0
-0.67
2.0
4.33
0.33
-1.0
6.33
5.0
2.0

File: 9.75.txt
0.0
30.67
69.67
-27.67
9.33
1.67
2.33
0.0
0.33
0.0
1.0
0.0
1.0
0.0
-1.0
-2.67
-2.33
3.0
1.67
0.67
4.67
-2.67
-1.67
4.0
-6.0
-1.0
3.33
1.67
-2.0
-1.33
3.33
2.67
1.0
12.67
-1.0
0.67
-4.0
8.0
6.0
3.33
-4.67
5.0
2.33
2.67
1.33
6.0
2.0
7.0
-2.33
1.67
-3.33
-1.0
3.33
6.0
9.0
0.67
-0.67
-2.33
1.0
3.0
-0.67
-0.33
-2.0
-2.67
-1.33
-0.67
-2.33
-1.0
1.33
2.67
-2.67
-0.67
-2.0
4.0
0.33
1.0
0.67
-2.67
2.0
-1.0
-1.33
1.67
3.0
1.33
5.0
0.0
-5.67
1.0
0.0
3.0
3.33
-1.0
-1.33
7.67
-0.67
-3.0
-1.33
-0.33
0.0
1.67
-8.67
-4.0
-0.33
-1.33
4.33
-1.33
-2.33
-0.67
-2.0
-7.33
0.0
-1.33
3.0
-1.33
8.33
16.33
20.33
22.0
7.33
-2.33
-7.67
-2.33
1.0
-2.33
0.0
-5.33
-6.0
-2.67
1.0
2.0
2.67
-6.67
3.0
-2.67
8.0
-0.33
-3.33
-2.33
1.33
0.33
-6.33
5.33
6.33
0.0
2.0
-3.0
1.0
9.0
18.33
12.0
10.67
0.67
4.0
-0.33
1.67
-1.67
8.0
8.33
9.0
6.0
-2.33
4.0
13.0
5.67
3.67
6.33
5.67
10.0
10.33
4.0
-4.33
13.33
10.67
5.67
-9.67
14.33
19.67
0.0
14.0
10.33
-4.0
4.0
11.33
25.33
33.33
33.33
36.67
85.33
108.67
102.67
42.67
24.67
9.67
7.67
19.67
3.33
12.67
8.0
4.67
14.67
16.67
1.0
18.33
5.0
6.67
12.67
8.33
0.33
21.0
11.0
9.67
3.33
4.67
3.67
13.0
22.67
16.33
32.0
27.33
7.33
8.67
12.33
3.67
6.67
12.67
-4.0
18.0
2.0
9.0
15.0
-4.0
10.33
3.0
4.0
-11.33
14.33
6.33
-5.67
4.67
8.33
3.67
-4.0
-2.67
-10.67
-2.33
7.0
-3.67
3.67
15.33
-0.67
8.0
-2.67
4.0
4.67
9.0
0.67
1.0
1.67
-5.33
9.67
2.33
-4.33
-5.33
-5.0
0.0
-4.33
-3.67
-2.67
-2.67
3.67
-4.0
-3.33
5.0
3.0
-1.33
-0.67
-3.67
-2.67
5.67
3.0
4.0
12.33
0.0
5.33
-4.0
1.0
-2.67
4.0
6.33
-0.67
-1.0
-0.67
4.0
0.0

File: 10.75.txt
0.0
27.67
114.67
-19.67
-1.67
-5.33
-0.67
0.0
-0.67
0.0
0.0
0.0
-1.0
3.0
1.0
-2.67
-2.33
2.0
-0.33
0.67
0.67
2.33
-0.67
8.0
-1.0
0.0
0.33
1.67
6.0
5.67
7.33
-0.33
0.0
-0.33
0.0
-2.33
10.0
4.0
-3.0
-0.67
-0.67
4.0
0.33
4.67
1.33
3.0
3.0
-1.0
-1.33
6.67
0.67
-1.0
-2.67
-4.0
9.0
-1.33
4.33
6.67
3.0
0.0
2.33
-4.33
4.0
1.33
-0.33
5.33
-1.33
-2.0
4.33
5.67
-4.67
-0.67
3.0
-1.0
1.33
8.0
1.67
4.33
2.0
-3.0
3.67
-3.33
1.0
5.33
3.0
-2.0
-3.67
-2.0
-1.0
0.0
0.33
-4.0
-0.33
1.67
-2.67
-5.0
-2.33
-0.33
1.0
-0.33
-5.67
-4.0
4.67
-4.33
2.33
-2.33
-4.33
0.33
2.0
-6.33
-4.0
1.67
2.0
-1.33
5.33
29.33
36.33
21.0
4.33
7.67
-1.67
-0.33
-2.0
-4.33
3.0
0.67
-2.0
-2.67
4.0
-1.0
-3.33
-4.67
-1.0
-2.67
1.0
-2.33
0.67
0.67
-2.67
1.33
-4.33
10.33
2.33
2.0
4.0
8.0
3.0
15.0
18.33
14.0
9.67
-0.33
13.0
6.67
3.67
6.33
4.0
1.33
-2.0
11.0
6.67
2.0
4.0
-2.33
2.67
8.33
5.67
12.0
1.33
-1.0
-5.33
6.33
7.67
1.67
-0.67
19.33
11.67
10.0
10.0
7.33
9.0
12.0
26.33
17.33
27.33
24.33
49.67
92.33
101.67
93.67
54.67
28.67
6.67
7.67
8.67
9.33
18.67
13.0
10.67
-4.33
9.67
3.0
9.33
-1.0
1.67
11.67
-0.67
1.33
15.0
13.0
10.67
-3.67
1.67
1.67
3.0
19.67
37.33
34.0
28.33
13.33
21.67
5.33
3.67
7.67
5.67
5.0
8.0
5.0
9.0
15.0
13.0
15.33
-11.0
4.0
0.67
3.33
18.33
0.33
2.67
3.33
-3.33
-1.0
-0.67
-4.67
-3.33
7.0
-2.67
2.67
2.33
15.33
1.0
-2.67
1.0
0.67
1.0
5.67
-2.0
4.67
5.67
3.67
5.33
7.67
-6.33
7.0
-5.0
-0.33
-0.67
8.33
0.33
3.67
0.0
7.67
0.0
3.0
2.67
-3.67
2.33
5.33
4.67
-3.0
5.0
-1.67
6.0
1.33
-3.0
9.0
-5.67
3.0
0.33
-2.67
1.0
-3.67
2.0
0.0

File: 11.25.txt
0.0
128.67
28.67
-9.67
1.33
-1.33
1.33
1.0
-0.67
0.0
0.0
0.0
-1.0
0.0
0.0
-2.67
-4.33
0.0
-1.33
-3.33
-0.33
0.33
8.33
6.0
1.0
0.0
1.33
-0.33
2.0
-3.33
-0.67
2.67
-3.0
4.67
10.0
1.67
-1.0
6.0
-2.0
3.33
-3.67
4.0
5.33
3.67
2.33
8.0
-3.0
6.0
-3.33
3.67
-0.33
4.0
2.33
3.0
3.0
-1.33
1.33
0.67
-6.0
1.0
1.33
4.67
1.0
4.33
-3.33
5.33
1.67
0.0
5.33
-0.33
-3.67
2.33
-3.0
6.0
-0.67
0.0
2.67
-3.67
2.0
-3.0
0.67
-3.33
5.0
1.33
1.0
-1.0
0.33
1.0
3.0
0.0
2.33
2.0
0.67
1.67
-0.67
-1.0
-5.33
-1.33
1.0
2.67
-6.67
-4.0
5.67
0.67
3.33
-1.33
-3.33
-3.67
-6.0
-3.33
-6.0
1.67
0.0
-0.33
18.33
23.33
44.33
46.0
9.33
2.67
-2.67
2.67
-3.0
-11.33
-5.0
2.67
9.0
-6.67
-3.0
0.0
-7.33
-6.67
-2.0
-2.67
-5.0
-1.33
-1.33
-3.33
3.33
-7.67
1.67
4.33
-0.67
0.0
-3.0
3.0
4.0
16.0
30.33
10.0
6.67
0.67
0.0
8.67
15.67
15.33
1.0
1.33
6.0
11.0
7.67
6.0
8.0
0.67
-6.33
2.33
3.67
12.0
14.33
2.0
7.67
4.33
3.67
4.67
0.33
17.33
-0.33
3.0
6.0
2.33
1.0
8.0
20.33
22.33
16.33
31.33
54.67
113.33
122.67
99.67
43.67
17.67
13.67
10.67
6.67
19.33
13.67
13.0
8.67
16.67
-0.33
18.0
11.33
16.0
8.67
15.67
12.33
10.33
7.0
13.0
8.67
3.33
-5.33
6.67
10.0
17.67
27.33
45.0
19.33
11.33
21.67
10.33
-1.33
8.67
13.67
-2.0
15.0
3.0
11.0
13.0
9.0
-1.67
-4.0
2.0
-3.33
7.33
10.33
-3.67
-8.33
12.33
2.67
2.0
0.33
-2.67
-1.33
-5.0
5.33
6.67
7.33
7.33
7.0
4.33
4.0
-3.33
5.0
3.67
-6.0
-2.33
11.67
-0.33
6.33
-6.33
-8.33
-6.0
0.0
-6.33
0.33
-1.67
9.33
-0.33
1.0
1.67
7.0
3.0
4.67
-2.67
-5.67
-3.67
0.67
-4.0
2.0
-4.67
8.0
5.33
0.0
4.0
2.33
2.0
0.33
0.33
-2.0
-1.67
1.0
-5.0

File: 12.0.txt
0.0
40.67
34.67
-27.67
-8.67
-2.33
0.33
1.0
-0.67
0.0
0.0
1.0
-1.0
1.0
1.0
-2.67
-2.33
5.0
-2.33
-2.33
0.67
7.33
-0.67
4.0
0.0
9.0
3.33
1.67
-1.0
-0.33
7.33
8.67
7.0
-0.33
7.0
2.67
3.0
4.0
0.0
1.33
-5.67
6.0
3.33
0.67
7.33
10.0
-3.0
5.0
0.67
5.67
-2.33
2.0
-2.67
4.0
-1.0
-1.33
-2.67
0.67
0.0
3.0
-0.67
0.67
-2.0
-1.67
2.67
3.33
0.67
-2.0
-1.67
0.67
-2.67
1.33
-3.0
-1.0
-1.67
3.0
1.67
3.33
0.0
-4.0
-0.33
-0.33
-1.0
1.33
1.0
-1.0
-5.67
-3.0
-4.0
-2.0
3.33
-5.0
0.67
-0.33
3.33
-2.0
-5.33
-2.33
7.0
3.67
-2.67
-2.0
4.67
-0.33
0.33
-3.33
-2.33
0.33
-2.0
-2.33
-4.0
3.67
7.0
15.67
0.33
22.33
44.33
33.0
15.33
3.67
3.33
-6.33
3.0
-0.33
6.0
-4.33
0.0
-2.67
-5.0
3.0
-4.33
-2.67
2.0
-4.67
3.0
-2.33
-6.33
7.67
8.33
-2.67
-5.33
-0.67
9.33
2.0
10.0
8.0
11.0
34.0
23.33
35.0
11.67
3.67
11.0
0.67
5.67
3.33
2.0
5.33
-1.0
0.0
9.67
-1.0
7.0
8.67
5.67
6.33
4.67
5.0
7.33
-1.0
4.67
9.33
16.67
1.67
-2.67
6.33
5.67
2.0
6.0
9.33
4.0
3.0
7.33
24.33
22.33
40.33
79.67
202.33
222.67
175.67
106.67
28.67
12.67
8.67
22.67
4.33
11.67
11.0
3.67
4.67
11.67
8.0
18.33
23.0
13.67
11.67
6.33
9.33
9.0
5.0
14.67
3.33
5.67
7.67
-1.0
27.67
7.33
41.0
12.33
6.33
21.67
4.33
3.67
11.67
1.67
9.0
9.0
1.0
8.0
16.0
13.0
6.33
4.0
-10.0
-2.33
-3.67
14.33
-3.67
9.67
-3.67
6.67
-2.0
8.33
-2.67
-0.33
0.0
2.33
8.67
4.33
6.33
2.0
9.33
0.0
-0.33
3.0
5.67
0.0
4.67
-1.33
7.67
-5.67
-3.33
-11.33
-1.0
-1.0
2.67
-1.67
-2.67
2.33
5.67
0.0
4.67
-3.0
0.0
2.67
-0.67
-4.67
-4.67
11.67
-4.0
2.0
3.33
0.0
12.33
1.0
5.0
1.33
0.0
-2.67
-0.67
-2.0
0.33
5.0
0.0

File: 12.25.txt
0.0
-30.33
-3.33
-17.67
-7.67
4.67
-0.67
0.0
-0.67
0.0
0.0
1.0
1.0
1.0
2.0
-1.67
-1.33
1.0
-1.33
-0.33
-2.33
-0.67
-1.67
4.0
-1.0
0.0
2.33
0.67
-1.0
5.67
5.33
-5.33
2.0
1.67
-2.0
2.67
-1.0
6.0
2.0
6.33
2.33
6.0
2.33
4.67
-1.67
5.0
5.0
3.0
-1.33
2.67
-4.33
-3.0
4.33
7.0
4.0
4.67
-1.67
-0.33
3.0
2.0
3.33
-1.33
3.0
0.33
-2.33
-3.67
-2.33
-2.0
0.33
1.67
0.33
0.33
-3.0
0.0
1.33
2.0
-1.33
-2.67
-4.0
-3.0
3.67
-2.33
0.0
6.33
3.0
0.0
-3.67
1.0
3.0
3.0
4.33
-3.0
-1.33
1.67
-1.67
-1.0
-4.33
-2.33
-1.0
0.67
-5.67
1.0
-0.33
0.67
-1.67
-2.33
-1.33
-0.67
-3.0
8.67
-3.0
-0.33
4.0
0.67
-2.67
38.33
63.33
54.0
10.33
4.67
-3.67
-3.33
2.0
-3.33
2.0
10.67
3.0
-4.67
1.0
0.0
-5.33
-9.67
0.0
-4.67
0.0
0.67
-6.33
-2.33
7.33
3.33
-3.33
8.33
9.33
13.0
11.0
20.0
22.0
20.0
12.33
17.0
7.67
2.67
4.0
10.67
8.67
2.33
9.0
0.33
-3.0
13.0
-0.33
1.0
14.0
-0.33
1.67
3.33
8.67
17.0
8.33
1.0
4.67
7.33
1.67
9.67
-3.67
0.33
4.67
6.0
13.0
11.33
-2.0
7.0
11.33
14.33
22.33
29.33
61.67
146.33
156.67
142.67
70.67
22.67
4.67
13.67
6.67
10.33
11.67
4.0
0.67
4.67
6.67
2.0
10.33
14.0
4.67
14.67
5.33
17.33
-2.0
7.0
6.67
-2.67
-2.33
8.67
1.0
13.67
21.33
19.0
18.33
0.33
16.67
6.33
9.67
17.67
-3.33
4.0
2.0
10.0
8.0
2.0
2.0
9.33
-5.0
0.0
-5.33
13.33
3.33
-4.67
1.67
5.33
7.67
7.0
-1.67
-9.67
-2.33
-4.0
7.33
-0.33
-2.67
12.33
7.0
0.33
-4.0
-4.33
3.0
2.67
-9.0
3.67
7.67
1.67
-3.67
2.67
-2.33
-3.0
-6.0
-4.33
-1.67
5.33
8.33
-1.33
7.0
6.67
-4.0
-3.0
0.67
6.33
0.33
-4.67
2.67
7.0
1.0
-1.67
3.0
2.33
1.0
2.0
-3.67
-3.0
1.33
0.33
2.0
0.33
0.0
-1.0