Folder: EDX-Concrete-Analysis/EDX Back Ups and Old Files/Spectra copy 3.3.23/Samples/High pH SF 60C 14d

Note: README.md
This is Anthony's repository for doing all sorts of Energy Dispersive X-ray Analysis on concrete samples.

File: 6.25.txt
0.0
25.67
-46.0
8.0
-2.33
4.33
0.33
-0.67
1.33
0.67
2.0
-0.33
-0.67
2.0
1.67
1.33
2.0
1.0
9.33
5.67
-3.33
2.33
9.0
-0.33
-0.33
-8.0
0.67
-2.33
2.67
6.67
-1.33
1.33
8.0
-2.33
3.33
6.33
11.33
11.67
3.67
-1.33
7.67
5.33
0.0
5.67
3.0
6.33
8.33
-1.0
-1.0
7.0
9.0
1.67
6.33
-2.33
1.33
4.33
2.0
1.67
3.0
-0.33
-2.33
4.0
-0.33
-1.67
-3.0
4.33
-1.67
-1.67
2.0
4.0
-1.0
-2.67
-6.33
2.33
-2.33
-1.0
0.67
2.0
3.33
-4.0
-1.67
-2.0
6.67
3.33
1.67
2.67
3.0
-1.67
1.33
-1.33
-2.0
-7.0
-3.33
-4.67
0.67
2.67
4.67
-2.0
5.67
4.33
-3.0
-5.0
-0.33
-6.67
-8.0
1.33
-1.33
-5.67
2.67
-6.0
-2.33
-7.33
-6.33
-5.0
-4.33
1.0
11.33
5.0
-4.67
-12.0
-6.33
-0.67
-5.67
-12.0
-0.33
-4.67
-14.0
-8.0
-3.0
-3.33
-5.67
-7.0
-12.33
-12.67
0.33
-8.33
-8.33
2.33
-18.0
-0.33
-9.67
-10.67
-7.0
-4.67
5.33
-0.33
11.0
5.0
9.67
13.0
2.33
-6.0
2.33
-1.67
9.67
7.0
10.33
0.0
-7.0
-5.33
0.0
1.33
-1.33
7.33
21.0
13.0
4.33
9.67
7.33
-1.0
11.0
7.67
8.67
3.67
8.67
-0.67
7.33
9.67
6.33
6.0
13.33
11.67
15.67
4.33
10.67
14.67
31.67
85.0
81.0
100.33
32.67
16.33
10.67
6.33
2.0
-0.67
1.33
8.0
0.33
-8.33
2.0
17.33
14.33
8.0
-2.67
15.33
10.33
10.67
4.0
13.67
2.0
2.67
8.67
1.33
7.67
17.67
10.33
17.67
17.0
15.67
-0.67
4.67
25.33
5.0
2.33
8.33
16.67
1.67
5.33
5.0
12.0
9.33
0.33
5.67
5.0
-5.0
14.0
2.0
19.0
-0.67
-3.67
5.67
4.0
-0.33
7.67
6.0
-2.0
8.33
6.33
11.67
9.0
5.0
7.0
3.67
-8.33
-0.33
0.67
11.0
11.0
9.33
0.67
-5.0
-4.0
-6.33
0.0
10.67
-1.33
-3.0
9.33
5.0
9.33
6.67
1.0
-4.33
-0.33
4.67
0.33
7.0
-1.33
2.67
5.67
3.0
3.67
3.0
-3.0
-3.67
1.33
1.0
-4.67
1.67
-2.67
6.67
11.0
3.67

File: 8.25.txt
0.0
130.67
23.0
-15.0
-10.33
-0.67
-1.67
-0.67
-0.67
0.67
2.0
-0.33
-0.67
0.0
0.67
1.33
-2.0
3.0
1.33
-4.33
-1.33
-0.67
0.0
-0.33
-0.33
-7.0
-0.33
5.67
2.67
-0.33
2.67
-0.67
3.0
0.67
1.33
4.33
3.33
-0.33
-0.33
1.67
10.67
-2.67
7.0
0.67
11.0
2.33
5.33
1.0
-4.0
10.0
7.0
1.67
7.33
-1.33
3.33
2.33
3.0
-0.33
11.0
4.67
-1.33
-3.0
2.67
-4.67
8.0
1.33
-4.67
-5.67
1.0
5.0
2.0
3.33
-0.33
-3.67
-2.33
6.0
-1.33
-1.0
0.33
6.0
0.33
-3.0
0.67
1.33
0.67
0.67
5.0
-2.67
1.33
-6.33
-6.0
-2.0
-2.33
2.33
1.67
-0.33
-2.33
-4.0
-0.33
0.33
-3.0
-4.0
-0.33
-3.67
-9.0
-3.67
-2.33
3.33
-1.33
-10.0
-5.33
-5.33
-10.33
-2.0
-9.33
10.0
14.33
15.0
-6.67
-4.0
-6.33
3.33
-11.67
-6.0
-1.33
-7.67
-12.0
-12.0
2.0
-9.33
-8.67
-2.0
-4.33
-13.67
5.33
-5.33
-13.33
2.33
-10.0
-3.33
-1.67
-10.67
-2.0
5.33
-1.67
-1.33
3.0
14.0
17.67
18.0
7.33
5.0
0.33
3.33
-4.33
10.0
6.33
1.0
8.0
-0.33
3.0
2.33
3.67
10.33
-1.0
8.0
3.33
5.67
15.33
1.0
13.0
2.67
0.67
1.67
1.67
2.33
1.33
19.67
11.33
15.0
-0.67
3.67
11.67
11.33
16.67
26.67
55.67
88.0
113.0
97.33
47.67
27.33
19.67
2.33
2.0
5.33
0.33
2.0
3.33
3.67
3.0
15.33
10.33
3.0
8.33
1.33
16.33
3.67
5.0
12.67
-3.0
-5.33
2.67
-8.67
11.67
11.67
20.33
24.67
29.0
11.67
9.33
2.67
11.33
12.0
-0.67
17.33
-6.33
2.67
0.33
-1.0
0.0
4.33
-9.67
-1.33
4.0
-6.0
-3.0
5.0
10.0
5.33
3.33
1.67
0.0
4.67
0.67
11.0
-3.0
-1.67
0.33
5.67
8.0
-6.0
-5.0
4.67
2.67
4.67
3.67
5.0
-7.0
2.33
2.67
-2.0
-4.0
-6.33
8.0
3.67
2.67
-2.0
5.33
5.0
7.33
0.67
10.0
9.67
3.67
-0.33
2.33
-1.0
-2.33
1.67
1.67
1.0
0.67
-2.0
2.0
1.33
-3.67
3.0
2.33
2.67
3.33
4.67
2.0
2.67

File: 9.25.txt
0.0
52.67
14.0
6.0
6.67
0.33
-1.67
-1.67
1.33
0.67
0.0
-0.33
-0.67
0.0
0.67
1.33
-1.0
2.0
1.33
5.67
5.67
-0.67
6.0
-0.33
4.67
-2.0
4.67
3.67
2.67
-4.33
-1.33
-3.67
2.0
3.67
2.33
2.33
6.33
-0.33
3.67
1.67
6.67
-0.67
7.0
1.67
3.0
1.33
11.33
0.0
5.0
2.0
9.0
7.67
1.33
-3.33
-2.67
-3.67
5.0
4.67
0.0
-2.33
-2.33
-3.0
-1.33
-0.67
2.0
-0.67
-0.67
-3.67
-1.0
6.0
1.0
0.33
3.67
-3.67
-1.33
5.0
2.67
-2.0
-0.67
0.0
2.33
-3.0
0.67
1.33
1.67
0.67
3.0
-5.67
3.33
-6.33
-2.0
-2.0
-1.33
-6.67
-2.33
-1.33
-1.33
-3.0
-4.33
-0.67
-2.0
-3.0
-0.33
-7.67
-9.0
-4.67
0.67
-5.67
-5.33
-3.0
-1.33
-4.33
-7.33
-9.0
-5.33
2.0
14.33
4.0
0.33
1.0
-5.33
4.33
-5.67
-2.0
-2.33
-0.67
-15.0
-7.0
2.0
-0.33
-1.67
0.0
-15.33
-9.67
7.33
-3.33
-12.33
-5.67
-6.0
4.67
-0.67
-11.67
0.0
-4.67
-4.67
7.67
12.0
19.0
18.67
26.0
3.33
1.0
5.33
0.33
-0.33
4.0
3.33
1.0
0.0
2.67
-1.0
13.33
-3.33
-3.67
-3.0
3.0
1.33
1.67
16.33
5.0
11.0
1.67
6.67
-1.33
0.67
7.33
9.33
-0.33
20.33
1.0
6.33
3.67
22.67
10.33
10.67
16.67
54.67
81.0
114.0
109.33
58.67
15.33
9.67
15.33
2.0
-12.67
2.33
10.0
1.33
13.67
5.0
1.33
10.33
-2.0
-3.67
15.33
12.33
5.67
7.0
6.67
-6.0
-7.33
4.67
-4.67
-0.33
17.67
9.33
19.67
37.0
20.67
4.33
9.67
7.33
1.0
-0.67
-1.67
2.67
3.67
13.33
-4.0
13.0
14.33
8.33
6.67
-6.0
-5.0
7.0
2.0
17.0
7.33
-9.67
-5.33
4.0
14.67
0.67
0.0
1.0
-0.67
4.33
0.67
6.0
1.0
8.0
4.67
-7.33
6.67
2.67
2.0
1.0
2.33
-0.33
1.0
-3.0
-0.33
3.0
6.67
-6.33
-9.0
-2.67
-1.0
2.33
2.67
8.0
1.67
-1.33
2.67
0.33
1.0
0.67
4.67
2.67
-1.0
7.67
1.0
2.0
-2.67
-8.67
0.0
0.33
-2.33
-2.67
1.67
3.0
-0.33

File: 10.0.txt
0.0
20.67
-38.0
-8.0
5.67
-0.67
-0.67
-1.67
-0.67
-0.33
1.0
-0.33
-0.67
0.0
0.67
-1.67
-2.0
3.0
0.33
0.67
3.67
-3.67
4.0
-4.33
6.67
0.0
-3.33
4.67
-3.33
-2.33
1.67
-0.67
0.0
-0.33
8.33
4.33
-0.67
3.67
5.67
2.67
1.67
2.33
4.0
-4.33
5.0
4.33
6.33
-6.0
1.0
7.0
4.0
4.67
1.33
-0.33
-1.67
4.33
-4.0
2.67
-2.0
3.67
-5.33
-1.0
2.67
0.33
1.0
2.33
4.33
-1.67
2.0
2.0
-5.0
1.33
-0.33
-3.67
-4.33
7.0
0.67
-2.0
-1.67
-3.0
2.33
-3.0
-2.33
-2.67
1.67
-1.33
3.0
-4.67
3.33
-3.33
0.0
0.0
-4.33
-1.67
-1.33
0.67
-3.33
-3.0
-1.33
-5.67
-1.0
-1.0
-4.33
-3.67
-4.0
-2.67
-6.33
-3.67
-2.33
-10.0
-9.33
-4.33
-11.33
-6.0
7.67
4.0
19.33
2.0
-4.67
-6.0
-13.33
2.33
-6.67
-5.0
3.67
-7.67
-4.0
-6.0
-4.0
-8.33
-3.67
-4.0
-9.33
-2.67
1.33
-5.33
-5.33
-5.67
-7.0
-2.33
-1.67
-4.67
-8.0
0.33
-2.67
6.67
10.0
9.0
27.67
24.0
4.33
4.0
1.33
2.33
10.67
9.0
-1.67
-4.0
3.0
4.67
6.0
2.33
2.67
-6.67
6.0
0.0
-0.67
5.67
-0.67
3.0
5.0
4.67
5.67
-2.33
6.67
2.33
6.33
14.67
13.33
9.0
11.33
4.67
7.67
18.33
13.67
17.67
76.67
129.0
129.0
105.33
53.67
16.33
17.67
4.33
2.0
11.33
4.33
10.0
7.33
5.67
4.0
6.33
-4.67
1.0
1.33
1.33
6.33
5.67
6.0
7.67
7.0
1.67
1.67
-5.67
-5.33
22.67
21.33
12.67
13.0
2.67
-8.67
10.67
6.33
13.0
-9.67
6.33
-3.33
6.67
-2.67
16.0
6.0
7.33
-1.67
2.67
3.0
-5.0
-5.0
-1.0
9.0
-1.67
-5.67
10.67
6.0
1.67
9.67
-6.0
-7.0
4.33
5.33
15.67
21.0
-1.0
3.0
0.67
-0.33
7.67
-3.33
9.0
1.0
10.33
6.67
-3.0
1.0
-8.33
4.0
4.67
1.67
-1.0
2.33
2.0
9.33
1.67
10.0
2.67
1.67
-3.33
4.33
-6.0
0.67
0.67
-3.33
0.0
2.67
-2.0
-2.0
1.33
-5.67
1.0
0.33
1.67
-7.67
3.67
1.0
-1.33

File: 10.5.txt
0.0
50.67
-100.0
37.0
6.67
-0.67
-1.67
-1.67
-0.67
0.67
0.0
-0.33
-0.67
0.0
1.67
0.33
0.0
1.0
0.33
3.67
8.67
-1.67
7.0
-1.33
4.67
3.0
7.67
2.67
2.67
-1.33
-2.33
-4.67
-9.0
-3.33
-1.67
2.33
-2.67
-2.33
4.67
2.67
1.67
-1.67
7.0
0.67
0.0
4.33
11.33
0.0
2.0
9.0
4.0
2.67
3.33
-0.33
1.33
-2.67
3.0
-3.33
4.0
-0.33
-0.33
-1.0
0.67
1.33
-2.0
2.33
-0.67
-2.67
-2.0
1.0
7.0
-1.67
2.67
-3.67
-0.33
1.0
-4.33
1.0
2.33
2.0
6.33
-2.0
-3.33
5.33
-0.33
2.67
-1.0
-0.67
5.33
-2.33
-4.0
-4.0
-2.33
-1.67
-1.33
0.67
-5.33
-2.0
-0.33
-2.67
2.0
3.0
-2.33
-11.67
-9.0
-0.67
-5.33
-4.67
-2.33
-8.0
-6.33
2.67
-7.33
-6.0
-0.33
5.0
9.33
2.0
-5.67
-2.0
-13.33
-1.67
-1.67
-11.0
-3.33
-3.67
-13.0
-14.0
-7.0
-4.33
4.33
-5.0
-7.33
-13.67
2.33
-4.33
-7.33
2.33
-9.0
-3.33
-3.67
-9.67
-4.0
-0.67
-5.67
3.67
12.0
34.0
22.67
14.0
9.33
13.0
6.33
2.33
-6.33
0.0
12.33
-4.0
4.0
10.67
2.0
12.33
7.67
4.33
3.0
6.0
-1.67
2.67
3.33
7.0
6.0
7.67
7.67
3.67
3.67
2.33
12.33
18.67
12.33
7.0
0.33
2.67
23.67
9.33
17.67
33.67
82.67
143.0
180.0
155.33
71.67
38.33
16.67
8.33
10.0
3.33
0.33
13.0
16.33
-1.33
4.0
7.33
7.33
-3.0
-4.67
0.33
5.33
-8.33
12.0
17.67
5.0
7.67
6.67
-4.67
9.67
18.67
17.33
12.67
20.0
11.67
-0.67
-1.33
4.33
1.0
-3.67
3.33
1.67
-5.33
9.33
2.0
13.0
0.33
-14.67
1.67
4.0
-11.0
5.0
3.0
9.0
1.33
0.33
4.67
0.0
4.67
0.67
9.0
-3.0
-2.67
-1.67
-4.33
11.0
-7.0
-4.0
2.67
-1.33
1.67
-1.33
6.0
-1.0
1.33
5.67
-3.0
-4.0
1.67
1.0
6.67
0.67
-7.0
6.33
3.0
5.33
3.67
10.0
5.67
10.67
5.67
-0.67
0.0
0.67
6.67
4.67
3.0
7.67
2.0
-1.0
-3.67
-3.67
1.0
-4.67
-0.33
1.33
-0.33
5.0
1.67

File: 10.75.txt
0.0
54.67
-35.0
8.0
-0.33
-4.67
-1.67
-1.67
-0.67
-0.33
1.0
-0.33
-0.67
2.0
-0.33
0.33
-2.0
0.0
-0.67
0.67
-0.33
3.33
1.0
-0.33
2.67
-4.0
3.67
2.67
-0.33
4.67
0.67
7.33
-5.0
2.67
4.33
3.33
-1.67
7.67
1.67
13.67
4.67
-1.67
8.0
4.67
3.0
7.33
5.33
-2.0
0.0
6.0
-1.0
2.67
1.33
-1.33
-1.67
1.33
7.0
0.67
3.0
-0.33
1.67
-1.0
-1.33
-4.67
-4.0
2.33
5.33
-1.67
-1.0
2.0
-4.0
8.33
-4.33
-6.67
6.67
0.0
3.67
-2.0
3.33
1.0
-1.67
3.0
-3.33
5.33
-1.33
3.67
0.0
1.33
4.33
-2.33
-4.0
-5.0
-6.33
-5.67
-0.33
-2.33
-0.33
3.0
-3.33
2.33
-1.0
-1.0
1.67
-1.67
-4.0
-3.67
-2.33
-5.67
-1.33
-9.0
-4.33
-2.33
-9.33
-7.0
-3.33
2.0
19.33
6.0
-3.67
4.0
-7.33
-0.67
-4.67
-8.0
-1.33
-7.67
-6.0
-6.0
-3.0
-12.33
-5.67
-4.0
-7.33
-5.67
-2.67
-8.33
-5.33
7.33
-7.0
9.67
-10.67
-4.67
-2.0
2.33
5.33
-1.33
17.0
26.0
36.67
19.0
6.33
9.0
8.33
1.33
7.67
3.0
15.33
6.0
-4.0
3.67
-3.0
4.33
10.67
-0.67
22.0
-1.0
12.33
5.67
0.33
2.0
11.0
3.67
10.67
6.67
7.67
1.33
10.33
14.67
10.33
13.0
4.33
4.67
17.67
14.33
24.67
34.67
83.67
153.0
170.0
160.33
83.67
22.33
24.67
-3.67
3.0
4.33
7.33
11.0
4.33
7.67
3.0
15.33
11.33
15.0
6.33
2.33
3.33
-2.33
11.0
9.67
5.0
9.67
20.67
12.33
11.67
9.67
18.33
7.67
24.0
5.67
7.33
7.67
17.33
0.0
7.33
9.33
8.67
-13.33
1.33
6.0
1.0
9.33
8.33
13.67
6.0
-15.0
-5.0
12.0
12.0
3.33
-2.67
-1.33
7.0
5.67
4.67
6.0
-3.0
-3.67
5.33
10.67
8.0
0.0
8.0
2.67
-0.33
8.67
-1.33
12.0
-2.0
5.33
-0.33
-7.0
0.0
2.67
7.0
5.67
0.67
-3.0
2.33
7.0
7.33
8.67
4.0
5.67
-0.33
-2.33
2.33
-4.0
-2.33
-4.33
-2.33
1.0
0.67
2.0
-3.0
1.33
-3.67
-1.0
-0.67
3.67
2.33
2.67
1.0
1.67

File: 11.5.txt
0.0
-7.33
-49.0
20.0
-8.33
-0.67
-0.67
-1.67
2.33
-0.33
0.0
0.67
-0.67
1.0
1.67
0.33
1.0
1.0
6.33
4.67
-2.33
0.33
5.0
-2.33
0.67
-1.0
-0.33
-0.33
-1.33
1.67
-2.33
2.33
0.0
5.67
5.33
6.33
0.33
4.67
3.67
-2.33
2.67
6.33
8.0
1.67
2.0
-2.67
9.33
-3.0
1.0
8.0
6.0
4.67
-0.67
-5.33
4.33
-1.67
3.0
-1.33
-2.0
-0.33
-5.33
-3.0
-4.33
-2.67
-1.0
-3.67
1.33
-7.67
-1.0
3.0
3.0
-0.67
-3.33
-3.67
8.67
4.0
-1.33
-1.0
6.33
2.0
-2.67
-1.0
-0.33
1.33
2.67
2.67
-4.0
-0.67
7.33
-2.33
-5.0
-2.0
-5.33
-6.67
0.67
-0.33
-1.33
0.0
-0.33
1.33
4.0
-3.0
-1.33
-3.67
-8.0
-2.67
-6.33
-3.67
-1.33
1.0
-4.33
1.67
-3.33
-9.0
-4.33
-2.0
9.33
-4.0
-10.67
-6.0
-10.33
-5.67
-9.67
-2.0
-5.33
-10.67
-12.0
-12.0
-1.0
-6.33
-0.67
2.0
-4.33
-11.67
5.33
-3.33
-11.33
-2.67
-5.0
5.67
-3.67
-7.67
-5.0
-2.67
0.33
4.67
8.0
35.0
48.67
23.0
17.33
11.0
17.33
4.33
4.67
5.0
3.33
6.0
0.0
-2.33
-7.0
2.33
8.67
7.33
13.0
0.0
5.33
1.67
7.33
7.0
15.0
1.67
27.67
9.67
9.67
7.33
7.33
8.67
9.33
3.0
5.33
-4.33
10.67
15.33
23.67
31.67
112.67
187.0
237.0
224.33
88.67
32.33
10.67
15.33
5.0
13.33
2.33
10.0
-4.67
-1.33
-3.0
10.33
2.33
7.0
-6.67
3.33
8.33
11.67
4.0
13.67
1.0
-7.33
5.67
7.33
10.67
4.67
5.33
15.67
21.0
10.67
-18.67
13.67
9.33
17.0
1.33
-6.67
15.67
1.67
7.33
0.0
1.0
29.33
-2.67
3.67
8.0
-5.0
-3.0
1.0
16.0
4.33
-0.67
9.67
-7.0
-1.33
-2.33
6.0
6.0
-9.67
-2.67
5.67
14.0
-2.0
7.0
-1.33
-4.33
6.67
5.67
3.0
0.0
5.33
-7.33
-3.0
-4.0
-4.33
4.0
0.67
-4.33
8.0
1.33
2.0
4.33
7.67
-1.0
4.67
-3.33
0.67
5.33
-8.0
-2.33
2.67
-4.33
-1.0
-2.33
5.0
-5.0
1.33
-0.67
1.0
-3.67
-2.33
-2.67
1.67
5.0
-2.33