Folder: EDX-Concrete-Analysis/EDX Back Ups and Old Files/Spectra copy 3.3.23/Samples/High pH SF 60C 2d

Note: README.md
This is Anthony's repository for doing all sorts of Energy Dispersive X-ray Analysis on concrete samples.

File: 6.0.txt
0.0
25.33
11.0
-20.33
0.33
-0.67
-0.33
0.0
0.67
-0.33
2.0
0.0
-0.33
-0.33
1.33
0.33
1.0
4.67
4.0
-0.67
2.67
5.33
1.33
3.33
6.67
3.0
11.0
5.0
1.33
3.0
-0.33
2.67
4.67
3.67
1.0
1.67
10.67
-1.0
3.0
3.0
9.33
3.67
-0.67
5.67
-4.0
7.67
4.67
4.67
9.67
-3.0
1.33
0.0
0.0
6.0
3.0
2.33
2.33
-2.33
-1.0
4.0
-2.67
2.67
8.67
1.33
0.0
6.0
2.33
6.67
-1.0
2.67
7.67
3.67
-0.67
0.33
4.67
4.33
-2.0
5.67
-3.67
0.67
2.0
1.33
3.0
-3.0
2.0
-3.0
0.0
-0.67
3.67
0.33
0.0
3.33
0.67
-0.67
1.0
1.33
-6.33
3.0
-5.0
-1.33
2.33
-2.67
-3.33
1.33
-5.33
-2.0
-0.33
-4.33
2.0
-7.67
-4.33
-9.0
0.67
-2.0
-4.33
10.67
21.33
13.0
13.0
-1.67
-5.33
3.0
2.67
-6.0
-6.0
2.33
-4.67
-11.33
-0.67
-2.33
-0.67
-6.0
-1.67
-4.67
-5.67
-5.0
-4.67
-6.67
3.67
-9.67
0.67
-0.67
4.0
6.33
-3.67
2.67
-6.0
9.67
2.33
21.67
0.0
5.67
7.33
7.33
2.0
9.33
-6.0
10.67
8.0
7.33
5.0
8.0
12.33
7.67
4.0
12.0
-3.67
6.67
13.33
8.67
3.0
11.33
3.67
10.33
-2.67
-2.67
5.0
8.33
11.33
11.33
9.33
5.67
8.33
10.0
19.67
9.0
35.33
55.33
89.67
92.33
30.33
21.67
4.67
9.33
-2.67
5.67
7.33
12.33
17.0
23.0
2.67
11.67
-0.33
17.67
-6.33
1.67
-1.67
-2.0
22.33
8.0
-8.67
13.67
17.67
10.0
16.67
27.33
18.67
33.67
22.0
28.33
3.67
19.33
-6.67
3.33
-8.33
3.67
6.67
3.0
21.67
12.0
3.33
-0.67
1.67
3.67
-2.33
10.0
9.67
6.67
3.33
5.33
2.0
5.0
3.0
8.67
10.67
13.33
11.0
5.67
5.67
2.0
3.0
0.0
6.67
11.33
-5.0
1.33
3.67
5.67
1.0
-1.33
3.0
6.67
-5.33
1.0
10.0
-5.67
7.0
-3.33
12.67
1.0
5.33
6.67
1.67
8.67
-1.33
4.0
3.67
0.33
5.0
0.67
1.67
-3.33
6.33
2.67
1.67
0.33
1.33
-1.67
-0.33
-1.33
2.67
2.67
2.33
-4.33

File: 6.5.txt
0.0
-44.67
-54.0
2.67
0.33
-2.67
-0.33
0.0
0.67
-0.33
0.0
0.0
0.67
0.67
0.33
-1.67
3.0
2.67
2.0
-0.67
8.67
4.33
3.33
7.33
4.67
2.0
4.0
-3.0
6.33
5.0
-0.33
1.67
0.67
4.67
3.0
2.67
5.67
1.0
9.0
2.0
8.33
-1.33
-11.67
3.67
-5.0
4.67
3.67
4.67
3.67
1.0
3.33
5.0
3.0
1.0
2.0
1.33
-0.67
-2.33
0.0
3.0
-2.67
4.67
1.67
1.33
1.0
-1.0
0.33
3.67
1.0
7.67
0.67
-0.33
-2.67
-0.67
2.67
1.33
-1.0
3.67
0.33
-2.33
1.0
0.33
5.0
1.0
2.0
1.0
1.0
1.33
4.67
2.33
1.0
2.33
2.67
-3.67
0.0
0.33
-4.33
-2.0
-2.0
-2.33
-2.67
-1.67
-1.33
-0.67
-5.33
-5.0
-2.33
-5.33
-3.0
-5.67
-4.33
-4.0
1.67
-4.0
-0.33
11.67
15.33
15.0
10.0
2.33
2.67
2.0
-5.33
-1.0
-3.0
-1.67
-5.67
-1.33
6.33
-2.33
-4.67
-9.0
-5.67
-0.67
-8.67
0.0
-2.67
-2.67
-3.33
-3.67
-1.33
4.33
-1.0
1.33
-1.67
-7.33
10.0
11.67
9.33
8.67
4.0
15.67
-2.67
2.33
-1.0
14.33
4.0
13.67
1.0
6.33
4.0
4.0
4.33
7.67
4.0
6.0
-1.67
8.67
16.33
11.67
3.0
4.33
14.67
8.33
6.33
-1.67
11.0
4.33
4.33
9.33
1.33
-1.33
8.33
5.0
16.67
21.0
53.33
72.33
94.67
71.33
28.33
4.67
17.67
3.33
7.33
9.67
5.33
-3.67
16.0
14.0
18.67
12.67
6.67
7.67
2.67
7.67
3.33
-3.0
15.33
16.0
-6.67
-4.33
2.67
8.0
-4.33
15.33
19.67
18.67
9.0
28.33
16.67
10.33
-4.67
-5.67
-7.33
6.67
1.67
1.0
9.67
10.0
12.33
-9.67
0.67
1.67
3.67
3.0
-0.33
16.67
-4.67
4.33
3.0
-1.0
10.0
-3.33
4.67
2.33
13.0
-8.33
1.67
2.0
-3.0
11.0
4.67
0.33
-2.0
4.33
-3.33
7.67
-5.0
1.67
7.0
-1.33
1.67
-1.0
9.0
-12.67
1.0
3.67
2.67
6.0
-6.67
6.67
4.67
7.67
5.67
10.0
-0.33
6.33
-5.0
2.67
3.67
-0.33
4.33
14.67
5.67
1.33
1.33
2.33
-4.33
5.67
2.67
1.67
2.33
0.67

File: 6.25.txt
0.0
-77.67
-16.0
-11.33
22.33
2.33
2.67
1.0
0.67
-0.33
0.0
1.0
0.67
0.67
0.33
1.33
6.0
1.67
-3.0
2.33
1.67
-1.67
5.33
5.33
-1.33
8.0
10.0
1.0
2.33
2.0
-3.33
9.67
0.67
-1.33
-4.0
6.67
7.67
-1.0
7.0
1.0
6.33
3.67
-9.67
1.67
-4.0
5.67
-1.33
9.67
3.67
3.0
1.33
6.0
10.0
3.0
3.0
0.33
4.33
1.67
2.0
9.0
5.33
4.67
2.67
4.33
-3.0
2.0
4.33
-0.33
0.0
-0.33
-2.33
-1.33
-0.67
3.33
-0.33
3.33
-2.0
3.67
5.33
-0.33
0.0
0.33
2.0
-2.0
6.0
-3.0
0.0
0.33
4.67
1.33
1.0
0.33
3.67
-3.67
3.0
-2.67
-6.33
0.0
-5.0
1.67
-2.67
-2.67
6.67
-0.67
-8.33
-1.0
-5.33
-4.33
-5.0
-4.67
-5.33
-6.0
-2.33
-7.0
5.67
13.67
31.33
10.0
4.0
8.33
-4.33
3.0
1.67
0.0
3.0
9.33
-6.67
-3.33
3.33
-1.33
-2.67
-1.0
1.33
-4.67
-2.67
2.0
-11.67
-2.67
-0.33
-3.67
-4.33
-5.67
-1.0
0.33
-3.67
-4.33
10.0
12.67
11.33
9.67
5.0
-1.33
-8.67
7.33
0.0
5.33
2.0
3.67
4.0
6.33
6.0
7.0
4.33
11.67
7.0
3.0
0.33
3.67
8.33
7.67
9.0
3.33
9.67
2.33
2.33
0.33
0.0
6.33
1.33
10.33
8.33
1.67
8.33
11.0
16.67
24.0
47.33
90.33
108.67
70.33
50.33
16.67
13.67
16.33
5.33
12.67
4.33
5.33
8.0
9.0
19.67
2.67
-0.33
13.67
-1.33
7.67
14.33
-2.0
12.33
1.0
-3.67
-5.33
2.67
11.0
0.67
16.33
15.67
33.67
28.0
9.33
24.67
12.33
2.33
-2.67
-4.33
1.67
5.67
4.0
16.67
2.0
14.33
-4.67
8.67
2.67
-6.33
4.0
8.67
9.67
-3.67
13.33
-6.0
2.0
6.0
2.67
-4.33
-0.67
16.0
1.67
9.67
8.0
6.0
9.0
4.67
1.33
-6.0
1.33
-3.33
3.67
-2.0
5.67
4.0
2.67
-1.33
7.0
11.0
-3.67
3.0
5.67
0.67
-2.0
-0.67
6.67
-1.33
3.67
1.67
1.0
-1.33
2.33
-4.0
2.67
6.67
3.67
-2.67
5.67
0.67
-3.67
1.33
0.33
-1.33
6.67
1.67
-3.33
7.33
2.67

File: 8.5.txt
0.0
19.33
-1.0
29.67
0.33
1.33
-0.33
0.0
-0.33
-0.33
0.0
0.0
-0.33
-0.33
1.33
0.33
1.0
-0.33
0.0
0.33
-4.33
2.33
-1.67
2.33
-3.33
-4.0
3.0
-3.0
7.33
3.0
3.67
7.67
0.67
2.67
3.0
3.67
3.67
5.0
2.0
-4.0
3.33
5.67
0.33
6.67
6.0
3.67
-2.33
-5.33
8.67
1.0
-0.67
1.0
5.0
4.0
-2.0
5.33
3.33
-2.33
-3.0
4.0
-2.67
0.67
1.67
2.33
-5.0
4.0
1.33
2.67
-6.0
3.67
-0.33
-3.33
-0.67
-2.67
5.67
2.33
0.0
0.67
0.33
0.67
5.0
1.33
9.0
0.0
-1.0
-1.0
3.0
-0.67
3.67
1.33
2.0
-1.67
1.67
-3.67
-2.0
0.33
-6.33
-3.0
-1.0
1.67
-1.67
-0.67
-2.33
-1.67
-4.33
0.0
-0.33
-3.33
-2.0
-8.67
-4.33
-6.0
-3.33
1.0
-3.33
12.67
21.33
13.0
9.0
-1.67
-0.33
0.0
0.67
5.0
-6.0
2.33
3.33
-5.33
6.33
-2.33
1.33
-5.0
-1.67
1.33
-3.67
-7.0
-7.67
1.33
0.67
0.33
-4.33
-5.67
1.0
0.33
-1.67
1.67
-5.0
16.67
17.33
2.67
1.0
0.67
-0.67
0.33
7.0
11.33
3.0
8.67
0.0
13.33
4.0
2.0
4.33
-5.33
5.0
0.0
2.33
6.67
7.33
23.67
5.0
1.33
6.67
11.33
11.33
0.33
1.0
15.33
7.33
14.33
16.33
12.67
8.33
5.0
20.67
21.0
41.33
86.33
81.67
96.33
35.33
6.67
9.67
16.33
10.33
-4.33
17.33
14.33
14.0
6.0
17.67
19.67
1.67
6.67
5.67
-0.33
10.33
17.0
5.33
10.0
-7.67
15.67
3.67
10.0
9.67
4.33
21.67
40.67
23.0
17.33
11.67
19.33
-3.67
1.33
-6.33
11.67
2.67
7.0
4.67
22.0
1.33
4.33
4.67
5.67
6.67
4.0
1.67
-0.33
12.33
9.33
-1.0
-3.0
11.0
-3.33
10.67
-9.67
20.0
7.67
1.67
11.0
9.0
10.0
3.67
10.33
-5.0
-8.67
-3.33
2.67
1.0
7.67
-2.0
7.67
8.67
3.0
3.0
-5.67
-1.0
-0.33
1.67
-6.0
-1.67
-2.33
-4.33
-0.33
3.67
4.0
-2.33
-4.67
2.0
5.67
3.67
1.67
2.33
7.67
5.67
-2.67
-0.67
-2.67
-0.33
1.67
-2.33
-2.33
8.33
2.67

File: 8.75.txt
0.0
-75.67
-12.0
32.67
11.33
-1.67
-0.33
0.0
-0.33
0.67
0.0
0.0
0.67
-0.33
2.33
-1.67
0.0
4.67
-3.0
-3.67
-2.33
0.33
-3.67
3.33
-1.33
-1.0
3.0
3.0
4.33
2.0
-0.33
2.67
-4.33
5.67
4.0
5.67
5.67
3.0
9.0
-1.0
2.33
6.67
-2.67
3.67
-2.0
0.67
-3.33
3.67
-0.33
3.0
0.33
0.0
0.0
5.0
3.0
1.33
4.33
-3.33
1.0
10.0
-0.67
0.67
4.67
-3.67
2.0
3.0
1.33
6.67
-1.0
6.67
-0.33
-5.33
3.33
-2.67
5.67
-0.67
5.0
-0.33
-0.67
-1.33
5.0
0.33
1.0
-2.0
4.0
0.0
5.0
-1.67
2.67
0.33
0.0
0.33
3.67
-2.67
1.0
-2.67
-5.33
0.0
-6.0
-5.33
3.33
3.33
0.67
-2.67
-3.33
-7.0
-4.33
1.67
-3.0
-4.67
-0.33
-5.0
-2.33
-7.0
8.67
17.67
26.33
10.0
12.0
-2.67
-5.33
-1.0
2.67
3.0
-2.0
-0.67
-5.67
-0.33
-0.67
-5.33
-3.67
-11.0
-1.67
-3.67
-3.67
3.0
-5.67
5.33
-3.33
-1.67
-1.33
6.33
0.0
3.33
2.33
-9.33
8.0
20.67
7.33
15.67
4.0
10.67
-5.67
-1.67
-2.0
6.33
10.0
2.67
3.0
6.33
13.0
16.0
-0.67
5.67
1.0
0.0
-0.67
8.67
9.33
19.67
2.0
3.33
10.67
9.33
3.33
5.33
14.0
5.33
5.33
8.33
2.33
5.67
2.33
19.0
17.67
20.0
50.33
63.33
112.67
96.33
51.33
12.67
19.67
6.33
9.33
13.67
1.33
-1.67
11.0
2.0
16.67
5.67
2.67
9.67
-6.33
1.67
3.33
4.0
15.33
-3.0
1.33
4.67
19.67
13.0
-6.33
1.33
4.67
30.67
32.0
17.33
13.67
17.33
15.33
1.33
-3.33
1.67
-10.33
2.0
14.67
3.0
17.33
1.33
0.67
2.67
10.67
-4.0
4.67
18.67
7.33
4.33
-6.0
7.0
-4.0
0.67
-7.33
-5.67
5.0
2.67
5.67
3.0
10.0
0.0
3.67
6.33
-2.0
-3.67
1.67
3.67
4.0
5.67
-1.0
8.67
8.67
-3.0
7.0
-0.67
6.0
3.67
2.67
0.0
-1.67
10.67
0.67
1.67
2.67
6.0
-3.33
-2.67
-1.0
-3.33
6.67
1.67
6.33
3.67
1.67
-3.67
-2.67
-2.67
-1.33
-5.33
3.67
4.67
7.33
6.67

File: 11.5.txt
0.0
31.33
-18.0
5.67
-9.67
0.33
-0.33
1.0
-0.33
0.67
2.0
0.0
-0.33
-0.33
-0.67
-2.67
2.0
-2.33
2.0
-2.67
-1.33
1.33
-1.67
1.33
6.67
-1.0
9.0
3.0
-1.67
4.0
-6.33
9.67
4.67
5.67
4.0
6.67
10.67
13.0
1.0
-2.0
3.33
5.67
-0.67
3.67
-2.0
1.67
-0.33
6.67
9.67
1.0
6.33
5.0
1.0
9.0
-1.0
-3.67
0.33
-3.33
1.0
4.0
-0.67
-1.33
4.67
-1.67
-2.0
7.0
3.33
-0.33
2.0
4.67
-0.33
-4.33
1.33
0.33
-0.33
0.33
2.0
1.67
3.33
-0.33
2.0
-1.67
-1.0
2.0
0.0
0.0
6.0
-0.67
0.67
3.33
-5.0
-0.67
-2.33
-1.67
0.0
0.33
-6.33
-5.0
-7.0
0.67
-1.67
3.33
0.67
5.33
-3.33
-1.0
1.67
-3.33
0.0
1.33
-5.33
-5.0
-3.33
3.0
-0.33
-4.33
-0.67
-8.0
1.0
-1.67
-8.33
0.0
2.67
-3.0
-3.0
-3.67
4.33
-8.33
5.33
-1.33
1.33
-8.0
0.33
9.33
-7.67
-5.0
-11.67
3.33
-2.33
-4.67
-0.33
-1.67
1.0
1.33
-5.67
-3.33
9.0
17.67
39.33
27.67
15.0
-6.33
-2.67
9.33
1.0
5.33
5.0
5.67
3.0
1.33
10.0
5.0
10.33
5.67
8.0
10.0
-0.67
6.67
11.33
9.67
0.0
9.33
8.67
15.33
1.33
9.33
4.0
13.33
-1.67
13.33
16.33
-7.33
0.33
6.0
13.67
15.0
121.33
219.33
269.67
190.33
99.33
31.67
12.67
17.33
15.33
5.67
6.33
3.33
11.0
11.0
10.67
28.67
-11.33
2.67
-1.33
8.67
0.33
10.0
19.33
-5.0
5.33
15.67
28.67
1.0
12.67
-0.67
-0.33
3.67
-8.0
2.33
4.67
7.33
-0.67
-5.67
-5.33
5.67
-6.33
8.0
23.67
15.0
21.33
13.33
0.67
8.67
1.67
1.0
1.67
14.67
-2.67
8.33
0.0
-8.0
2.0
-1.33
6.67
10.33
5.0
-2.33
6.67
6.0
10.0
9.0
-4.33
-1.67
-4.0
4.33
5.67
1.67
5.0
-9.33
-8.0
0.67
-1.33
-4.0
2.0
-12.67
10.0
-0.33
2.67
-1.0
0.33
-1.33
2.67
1.67
6.67
-4.0
6.67
-2.67
-3.0
11.67
0.67
0.67
1.33
-3.33
-3.33
-4.67
0.33
-6.67
0.67
-3.33
-1.33
5.67
2.33
4.67

File: 11.25.txt
0.0
-72.67
-73.0
8.67
6.33
-3.67
0.67
0.0
0.67
-0.33
0.0
0.0
1.67
1.67
-0.67
-1.67
2.0
-0.33
2.0
2.33
-3.33
2.33
1.33
5.33
-1.33
2.0
6.0
9.0
4.33
2.0
3.67
1.67
-4.33
4.67
0.0
-3.33
8.67
0.0
-3.0
1.0
-0.67
8.67
1.33
5.67
3.0
0.67
-0.33
1.67
5.67
2.0
-1.67
0.0
-1.0
0.0
3.0
4.33
-2.67
-1.33
5.0
3.0
-0.67
-5.33
6.67
2.33
2.0
0.0
2.33
3.67
0.0
9.67
-1.33
-0.33
2.33
1.33
-0.33
1.33
0.0
5.67
-2.67
-0.33
0.0
-2.67
4.0
3.0
7.0
-2.0
-1.0
1.33
1.67
1.33
-4.0
-2.67
-1.33
-4.67
1.0
-0.67
-2.33
3.0
-3.0
5.67
-1.67
-0.67
-2.33
-1.67
-3.33
0.0
-3.33
-5.33
-3.0
-3.67
-5.33
0.0
0.67
1.0
-1.33
3.67
6.33
-9.0
0.0
-1.67
-7.33
-3.0
-2.33
1.0
-3.0
-2.67
-1.67
-3.33
0.33
0.67
1.33
-5.0
-6.67
2.33
-2.67
3.0
-8.67
-6.67
-1.33
-0.67
4.67
-2.67
2.0
-0.67
-4.67
8.67
14.0
25.67
32.33
25.67
1.0
3.67
0.33
8.33
0.0
16.33
1.0
7.67
9.0
8.33
14.0
8.0
9.33
9.67
12.0
-3.0
0.33
6.67
4.33
2.67
9.0
13.33
7.67
12.33
3.33
4.33
9.0
7.33
2.33
11.33
10.33
21.67
6.33
10.0
9.67
31.0
115.33
192.33
236.67
215.33
103.33
29.67
12.67
19.33
11.33
6.67
8.33
3.33
22.0
18.0
24.67
6.67
-2.33
1.67
-2.33
0.67
10.33
7.0
21.33
13.0
3.33
4.67
2.67
4.0
4.67
9.33
0.67
12.67
15.0
3.33
4.67
-4.67
8.33
-2.67
-2.33
4.67
2.67
3.0
10.67
18.0
10.33
-0.67
8.67
-2.33
1.67
6.0
7.67
18.67
-4.67
7.33
3.0
4.0
3.0
10.67
9.67
5.33
13.0
3.67
9.67
5.0
15.0
10.0
4.67
-0.67
6.0
4.33
8.67
-7.33
-1.0
-1.33
6.0
9.67
-5.33
3.0
1.0
0.33
-3.0
-0.33
0.67
6.0
-7.67
9.67
2.67
7.67
4.67
2.0
5.67
0.33
-5.0
-2.33
3.67
-2.33
2.33
3.67
8.67
-0.67
-0.67
-4.67
-0.33
4.67
0.67
7.67
6.33
0.67

File: 12.0.txt
0.0
-25.67
17.0
33.67
-6.67
1.33
-0.33
0.0
-0.33
-0.33
0.0
1.0
-0.33
0.67
0.33
-2.67
2.0
4.67
1.0
0.33
2.67
-1.67
-1.67
4.33
9.67
-3.0
2.0
3.0
-1.67
0.0
3.67
1.67
-5.33
4.67
0.0
3.67
6.67
0.0
4.0
1.0
4.33
1.67
-4.67
4.67
2.0
1.67
-0.33
-4.33
-4.33
3.0
3.33
3.0
4.0
-1.0
-2.0
0.33
2.33
-3.33
0.0
3.0
-0.67
-4.33
-1.33
-1.67
-2.0
5.0
2.33
3.67
1.0
2.67
1.67
-0.33
0.33
1.33
1.67
3.33
-1.0
-1.33
4.33
1.67
2.0
-3.67
0.0
-2.0
-4.0
1.0
-1.0
3.33
0.67
1.33
1.0
-0.67
0.67
-2.67
2.0
-0.67
-1.33
3.0
-1.0
-1.33
2.33
-0.67
1.67
-0.67
-7.33
-4.0
-3.33
-0.33
1.0
-1.67
-6.33
-10.0
1.67
-3.0
-7.33
-1.33
10.33
0.0
0.0
-4.67
-3.33
-3.0
1.67
-5.0
-5.0
0.33
-3.67
-10.33
4.33
-4.33
2.33
-11.0
2.33
1.33
-2.67
-4.0
-8.67
-2.67
-6.33
-2.67
-3.33
1.33
-1.0
1.33
-6.67
7.67
11.0
10.67
25.33
17.67
15.0
8.67
-8.67
9.33
0.0
8.33
0.0
12.67
7.0
6.33
3.0
5.0
4.33
6.67
4.0
-6.0
-0.67
7.67
9.33
12.67
-1.0
3.33
6.67
20.33
3.33
2.33
1.0
0.33
3.33
8.33
7.33
2.67
3.33
12.0
28.67
40.0
123.33
253.33
284.67
237.33
111.33
27.67
20.67
6.33
-0.67
21.67
-3.67
8.33
6.0
4.0
15.67
-2.33
-6.33
6.67
1.67
10.67
7.33
15.0
15.33
3.0
-2.67
4.67
6.67
4.0
-1.33
-6.67
-4.33
-4.33
0.0
-2.67
5.67
11.33
4.33
-0.67
-15.33
5.67
7.67
9.0
13.67
13.0
14.33
4.33
8.67
4.67
0.67
11.0
-5.33
4.67
10.33
4.33
-7.0
-3.0
-2.0
2.67
-0.33
3.33
4.0
-2.33
6.67
13.0
13.0
5.0
5.67
3.33
-2.0
1.33
9.67
1.67
-2.0
-6.33
-8.0
5.67
-6.33
5.0
-3.0
-4.67
-3.0
2.67
2.67
4.0
-0.67
9.67
2.67
1.67
4.67
6.0
4.67
3.33
-6.0
-1.33
-1.33
-1.33
0.33
-0.33
2.67
0.33
-3.67
-2.67
-5.33
-5.33
-0.33
0.67
9.33
-0.33

File: 12.25.txt
0.0
-17.67
-36.0
-18.33
2.33
1.33
-0.33
0.0
-0.33
-0.33
1.0
1.0
-0.33
0.67
-0.67
-2.67
0.0
-0.33
1.0
-1.67
-4.33
0.33
-3.67
5.33
1.67
-6.0
6.0
1.0
1.33
2.0
-9.33
0.67
-2.33
7.67
1.0
0.67
7.67
2.0
1.0
-4.0
4.33
0.67
-4.67
2.67
-5.0
-2.33
-3.33
2.67
0.67
3.0
-0.67
-1.0
4.0
1.0
6.0
-3.67
-0.67
-4.33
-1.0
4.0
8.33
-4.33
5.67
-1.67
-3.0
5.0
3.33
3.67
-5.0
3.67
-2.33
-0.33
-1.67
-3.67
-1.33
2.33
-2.0
-1.33
0.33
-2.33
4.0
0.33
2.0
-2.0
0.0
2.0
4.0
-4.67
7.67
0.33
1.0
2.33
3.67
-0.67
-4.0
-5.67
-1.33
-3.0
-5.0
-1.33
-1.67
1.33
-2.33
-2.67
-5.33
-2.0
-2.33
-6.33
-3.0
-0.67
-2.33
-6.0
-1.33
-1.0
-7.33
-5.33
15.33
-3.0
6.0
-4.67
-4.33
-2.0
-3.33
2.0
-7.0
-2.67
-1.67
-4.33
-2.67
-1.33
-1.67
-4.0
-4.67
0.33
-6.67
-5.0
-3.67
1.33
-4.33
-2.67
2.67
-5.67
-7.0
2.33
-2.67
-4.33
10.0
6.67
18.33
5.67
5.0
-1.33
1.33
5.33
0.0
-1.67
-3.0
-0.33
-7.0
-1.67
3.0
2.0
-0.67
0.67
-3.0
-3.0
1.33
-1.33
-0.67
11.67
7.0
1.33
2.67
6.33
-3.67
-1.67
-2.0
11.33
-4.67
2.33
4.33
-3.33
2.33
5.0
1.67
31.0
57.33
98.33
149.67
98.33
55.33
6.67
2.67
-3.67
-5.67
2.67
4.33
3.33
7.0
8.0
13.67
9.67
0.67
3.67
-6.33
5.67
-4.67
4.0
8.33
4.0
-8.67
4.67
7.67
-1.0
-3.33
-6.67
-7.33
1.67
-5.0
-1.67
-7.33
8.33
0.33
-13.67
-5.33
-2.33
1.67
2.0
10.67
4.0
-4.67
1.33
-4.33
-9.33
5.67
-6.0
-10.33
13.67
-0.67
7.33
-9.0
5.0
7.0
11.67
2.67
-6.67
10.0
-1.33
7.67
-6.0
11.0
9.0
0.67
-1.67
-7.0
0.33
-2.33
-1.33
0.0
-6.33
-4.0
-1.33
-1.33
-2.0
-7.0
-5.67
1.0
-5.33
2.67
7.0
-4.67
-5.33
5.67
7.67
4.67
1.0
-3.33
-4.67
-4.0
1.67
-0.33
-0.33
-1.67
-0.33
0.67
1.33
-2.67
-6.67
-2.33
1.67
-2.33
2.67
2.33
4.67