Folder: EDX-Concrete-Analysis/EDX Back Ups and Old Files/Spectra copy 3.3.23/Samples/High pH BL 60C 4d

Note: README.md
This is Anthony's repository for doing all sorts of Energy Dispersive X-ray Analysis on concrete samples.

File: 6.0.txt
0.0
40.67
-63.33
-26.0
6.67
-2.67
0.67
-0.67
0.0
2.0
0.67
0.67
-1.0
1.0
1.0
-2.0
0.67
0.67
-3.0
-4.0
3.0
0.33
0.33
2.33
2.0
3.0
7.67
2.67
0.67
0.0
7.67
-5.33
8.67
0.67
7.33
1.67
3.67
1.0
-1.33
10.0
3.0
-1.67
3.0
9.33
5.0
0.0
2.0
4.33
-0.67
10.33
-3.67
3.0
-3.0
-8.0
-3.67
-2.0
2.33
3.67
1.67
-1.33
1.0
-2.67
3.33
-2.33
12.33
7.0
1.0
3.0
1.33
3.33
4.33
-3.0
-1.67
3.0
1.33
-2.0
-5.67
-0.67
0.33
2.33
2.33
2.0
-2.67
1.67
3.0
1.33
-1.67
0.0
3.33
-1.33
0.33
2.0
5.33
-4.33
0.0
0.67
-4.67
-0.33
-3.67
0.33
4.0
1.67
-4.67
-0.67
1.67
-7.33
-7.67
-2.67
-2.0
-3.67
1.0
-5.0
-4.67
-2.0
-0.67
8.67
25.33
17.0
-2.0
-3.33
-0.33
-7.67
-7.33
-4.33
-3.33
-11.33
-9.0
-5.33
-8.67
-9.0
-5.67
-3.0
1.33
-14.0
-2.67
0.0
-5.67
-13.0
-3.67
-3.67
-0.67
-5.67
1.0
-5.67
-10.67
1.67
-3.33
4.67
10.33
4.67
-3.0
0.33
-1.33
4.67
-5.0
1.33
8.67
-4.67
6.0
-1.0
4.33
9.33
2.33
-1.0
15.67
-9.0
12.33
3.67
-6.67
-3.67
4.67
4.33
14.0
2.0
10.67
10.33
5.0
-1.67
1.33
6.67
3.67
0.0
1.33
18.0
12.67
17.33
41.33
59.33
71.33
85.67
35.33
15.67
2.33
6.67
-2.0
16.67
9.33
3.67
22.0
11.67
8.67
-2.0
-3.33
0.33
5.0
9.67
9.0
5.33
11.0
-6.0
6.33
-4.33
18.33
0.0
7.0
27.67
29.0
35.67
28.33
22.67
12.33
11.0
9.67
8.33
-1.0
8.33
17.67
19.0
-0.33
3.33
-0.67
2.33
-3.0
9.67
-5.0
6.67
8.33
4.0
-1.67
-2.33
-0.33
-3.33
8.0
10.33
5.33
1.67
0.67
7.67
3.0
1.33
1.33
-4.67
-2.33
4.67
13.33
2.0
5.67
4.67
0.67
0.0
5.67
10.67
4.33
2.33
5.0
-0.33
-7.33
-2.0
3.33
-0.33
8.67
11.0
0.0
4.33
2.67
-3.33
-7.33
-4.33
-4.0
2.0
3.33
10.67
5.0
4.67
4.67
3.0
1.0
-2.33
-2.0
-6.0
5.67
3.0
2.33
-3.67

File: 8.5.txt
0.0
122.67
-31.33
-18.0
0.67
-1.67
0.67
0.33
0.0
1.0
-0.33
0.67
0.0
0.0
1.0
2.0
1.67
-1.33
1.0
-1.0
2.0
-1.67
-3.67
1.33
-4.0
3.0
-0.33
0.67
1.67
0.0
-3.33
-5.33
9.67
2.67
6.33
1.67
-0.33
-5.0
1.67
8.0
-1.0
1.33
1.0
3.33
8.0
4.0
-1.0
-0.67
2.33
3.33
-1.67
2.0
-2.0
-4.0
-0.67
3.0
4.33
-3.33
5.67
-2.33
0.0
-2.67
4.33
-3.33
-0.67
-2.0
2.0
1.0
-0.67
3.33
-1.67
-3.0
-3.67
0.0
3.33
0.0
-3.67
1.33
-0.67
5.33
-0.67
-5.0
6.33
-1.33
4.0
1.33
-1.67
1.0
0.33
0.67
3.33
-1.0
2.33
-3.33
3.0
-1.33
-1.67
-7.33
-0.67
-1.67
-2.0
-1.33
-4.67
-2.67
-3.33
-2.33
-11.67
4.33
-7.0
-2.67
-2.0
-5.0
-5.67
-6.0
7.33
5.67
11.33
6.0
12.0
-2.33
0.67
-3.67
-8.33
-1.33
-9.33
-9.33
-5.0
-7.33
-0.67
-10.0
-6.67
-6.0
-4.67
-2.0
-9.67
-4.0
-6.67
-10.0
-7.67
5.33
-1.67
-12.67
-8.0
-3.67
-12.67
-2.33
0.67
1.67
12.33
3.67
3.0
5.33
-2.33
7.67
-4.0
7.33
7.67
-2.67
3.0
-2.0
3.33
2.33
1.33
2.0
5.67
5.0
-4.67
7.67
-1.67
11.33
-0.33
2.33
17.0
-2.0
-0.33
3.33
20.0
9.33
3.33
3.67
0.67
9.0
9.33
16.0
20.67
37.33
46.33
68.33
83.33
70.67
44.33
13.67
6.33
8.67
5.0
-3.33
9.33
-6.33
6.0
6.67
13.67
9.0
1.67
13.33
13.0
14.67
5.0
8.33
5.0
4.0
10.33
2.67
10.33
-1.0
15.0
16.67
27.0
16.67
37.33
21.67
4.33
-1.0
16.67
-6.67
1.0
12.33
0.67
13.0
18.67
12.33
-7.67
-2.67
6.0
-5.33
14.0
-3.33
4.33
3.0
-6.67
13.67
3.67
7.67
8.0
6.33
13.33
-1.33
-12.33
3.67
-1.0
8.33
12.33
6.33
1.67
7.67
-0.67
4.0
0.67
0.67
-4.33
-3.0
-2.33
-5.33
2.33
5.33
0.0
3.67
-1.33
1.0
-0.67
13.67
1.67
13.0
4.0
-4.67
6.67
-6.33
1.67
-6.33
7.0
2.0
6.33
2.67
6.0
2.67
5.67
4.0
1.0
-6.33
-2.0
-2.0
1.67
-1.0
0.33
1.33

File: 10.25.txt
0.0
88.67
-50.33
-17.0
-3.33
-2.67
-0.33
-0.67
0.0
0.0
-0.33
0.67
0.0
1.0
0.0
1.0
-0.33
2.67
-2.0
4.0
-1.0
1.33
2.33
0.33
2.0
7.0
2.67
-0.33
-8.33
6.0
-1.33
-8.33
5.67
-5.33
8.33
-1.33
-2.33
0.0
-3.33
-1.0
-1.0
-3.67
7.0
3.33
-2.0
-4.0
-1.0
0.33
0.33
2.33
-0.67
-1.0
1.0
-4.0
5.33
-1.0
3.33
-0.33
1.67
5.67
1.0
0.33
2.33
-0.33
-2.67
5.0
3.0
-3.0
0.33
4.33
-5.67
-4.0
-1.67
3.0
6.33
1.0
-1.67
4.33
5.33
0.33
2.33
-3.0
-1.67
-3.33
-3.0
0.33
-2.67
1.0
2.33
1.67
-2.67
2.0
1.33
-5.33
-5.0
-0.33
1.33
-5.33
-2.67
0.33
0.0
6.67
-3.67
-2.67
0.67
-7.33
-8.67
-4.67
-6.0
-1.67
-1.0
-10.0
2.33
-3.0
2.33
15.67
45.33
31.0
2.0
0.67
-4.33
-1.67
0.67
-5.33
-7.33
-5.33
-1.0
-0.33
-4.67
-2.0
-4.67
-3.0
-5.67
-10.0
-5.67
-3.0
-3.67
-16.0
3.33
-9.67
-0.67
-3.67
-1.0
-8.67
-7.67
1.67
-2.33
8.67
9.33
11.67
3.0
-2.67
3.67
7.67
7.0
-3.67
12.67
-1.67
-3.0
7.0
-4.67
4.33
1.33
1.0
3.67
10.0
2.33
2.67
6.33
8.33
0.67
6.33
0.0
-2.0
-2.33
3.33
9.0
0.33
12.33
4.67
4.67
9.0
9.33
17.0
22.67
36.33
61.33
108.33
136.33
127.67
51.33
27.67
5.33
16.67
-2.0
4.67
17.33
-2.33
12.0
15.67
0.67
2.0
-1.33
8.33
-6.0
16.67
0.0
-1.67
1.0
5.0
11.33
-2.33
7.33
4.0
11.0
23.67
29.0
30.67
20.33
14.67
23.33
5.0
20.67
5.33
12.0
7.33
2.67
15.0
6.67
-1.67
-4.67
1.33
-1.0
10.67
5.0
-4.33
-0.67
-2.0
-3.67
-4.33
9.67
1.67
7.0
4.33
9.33
-1.33
-3.33
9.67
1.0
4.33
6.33
-7.67
8.67
0.67
-1.67
-1.0
-5.33
5.67
-2.33
-1.0
2.67
3.67
0.33
0.33
9.0
-1.33
-6.33
-6.0
-2.67
2.67
2.67
3.0
4.0
-2.67
1.67
0.67
-7.33
0.67
-2.0
4.0
2.33
6.67
3.0
-1.33
-3.33
-2.0
1.0
-1.33
-5.0
-8.0
2.67
4.0
-1.67
6.33

File: 10.75.txt
0.0
94.67
-50.33
-4.0
-2.33
-1.67
0.67
-0.67
0.0
1.0
-0.33
0.67
-1.0
1.0
1.0
-2.0
-0.33
-0.33
-2.0
-2.0
-1.0
3.33
-3.67
-4.67
-3.0
9.0
0.67
-5.33
-4.33
6.0
1.67
-4.33
4.67
3.67
6.33
-0.33
0.67
3.0
-0.33
2.0
2.0
1.33
4.0
1.33
-1.0
-3.0
5.0
0.33
-4.67
1.33
-0.67
0.0
-5.0
-5.0
1.33
-1.0
2.33
7.67
2.67
-2.33
-3.0
-7.67
4.33
-3.33
2.33
0.0
1.0
4.0
2.33
-0.67
-2.67
1.0
3.33
-6.0
-1.67
-1.0
-3.67
5.33
1.33
3.33
3.33
1.0
-4.67
2.67
4.0
0.33
4.33
0.0
0.33
-2.33
-1.67
3.0
2.33
-2.33
0.0
-2.33
-1.67
-3.33
-0.67
-0.67
-2.0
-0.33
-7.67
-3.67
-0.33
-6.33
-6.67
-3.67
-6.0
-1.67
-1.0
-12.0
-5.67
1.0
0.33
17.67
33.33
19.0
-2.0
-3.33
-0.33
-4.67
-2.33
-3.33
-6.33
-9.33
-9.0
-1.33
-5.67
-6.0
-5.67
4.0
-1.67
-7.0
-5.67
-5.0
-5.67
-9.0
-5.67
-6.67
2.33
-7.67
3.0
-8.67
-6.67
8.67
-4.33
10.67
5.33
5.67
3.0
-1.67
-1.33
4.67
7.0
0.33
5.67
1.33
0.0
4.0
1.33
2.33
1.33
3.0
-0.33
6.0
6.33
6.67
-0.67
-4.67
6.67
1.33
11.0
9.0
10.67
3.33
9.0
2.33
4.33
11.67
11.67
10.0
11.33
24.0
33.67
28.33
53.33
94.33
154.33
126.67
72.33
29.67
5.33
0.67
3.0
-3.33
12.33
7.67
11.0
11.67
16.67
3.0
4.67
16.33
13.0
18.67
0.0
11.33
12.0
-9.0
10.33
-11.33
7.33
6.0
7.0
-3.33
29.0
26.67
12.33
16.67
7.33
8.0
5.67
4.33
2.0
4.33
0.67
16.0
2.67
12.33
-10.67
5.33
6.0
6.67
6.0
-10.33
3.33
1.0
0.33
-13.33
6.67
9.67
-8.0
-1.67
-1.67
2.67
10.67
-0.33
1.0
0.33
10.33
4.33
-4.33
-4.33
1.33
3.0
1.67
3.67
-2.33
0.0
4.67
12.67
3.33
1.33
3.0
5.67
-9.33
1.0
-3.67
4.67
1.67
-1.0
-1.0
6.33
1.67
3.67
-5.33
2.67
-1.0
5.0
6.33
0.67
7.0
0.67
-1.33
4.0
-4.0
-4.33
-2.0
-5.0
5.67
-2.0
-0.67
-0.67

File: 11.5.txt
0.0
-94.33
-53.33
-7.0
0.67
1.33
0.67
0.33
0.0
0.0
0.67
-0.33
0.0
2.0
0.0
-2.0
-2.33
3.67
1.0
-4.0
-1.0
3.33
-8.67
5.33
3.0
2.0
-0.33
2.67
5.67
6.0
-0.33
-8.33
-0.33
-0.33
2.33
0.67
0.67
0.0
-2.33
3.0
-2.0
-1.67
6.0
2.33
2.0
3.0
11.0
1.33
-3.67
4.33
0.33
-2.0
-1.0
0.0
3.33
0.0
-3.67
-0.33
3.67
-0.33
-4.0
-5.67
8.33
-5.33
0.33
2.0
8.0
5.0
-3.67
0.33
-1.67
-4.0
0.33
-3.0
0.33
-1.0
-2.67
-1.67
6.33
-0.67
-2.67
-1.0
-4.67
-1.33
-4.0
-3.67
1.33
-5.0
-4.67
4.67
-1.67
3.0
-4.67
-0.33
-4.0
3.67
0.33
-5.33
-3.67
-5.67
-2.0
0.67
-1.67
-0.67
-3.33
-8.33
-4.67
-6.67
0.0
-3.67
6.0
-8.0
-4.67
-4.0
4.33
5.67
8.33
8.0
0.0
-2.33
-8.33
-6.67
-1.33
-10.33
-5.33
-9.33
-6.0
2.67
-2.67
-6.0
-4.67
-2.0
-2.67
-4.0
-7.67
-2.0
-7.67
-12.0
-8.67
-1.67
-7.67
-1.67
-3.0
-3.67
-4.67
0.67
3.67
12.67
34.33
27.67
14.0
4.33
1.67
-5.33
2.0
9.33
4.67
-3.67
0.0
-3.0
1.33
2.33
0.33
12.0
13.67
1.0
4.33
4.67
5.33
-12.67
-1.33
6.33
7.0
4.0
8.67
1.33
5.0
2.33
8.33
2.67
5.67
4.0
9.33
9.0
14.67
52.33
88.33
141.33
188.33
190.67
84.33
21.67
11.33
7.67
7.0
2.67
3.33
13.67
26.0
20.67
6.67
8.0
3.67
5.33
7.0
13.67
4.0
0.33
3.0
5.0
9.33
-4.33
5.33
-1.0
-4.0
11.67
27.0
22.67
16.33
-2.33
3.33
5.0
-2.33
6.33
9.0
-3.67
7.67
28.0
9.67
8.33
-9.67
8.33
0.0
2.67
14.0
-6.33
6.33
7.0
-3.67
-0.33
11.67
-0.33
5.0
3.33
-2.67
-8.33
8.67
14.67
12.0
4.33
10.33
-3.67
4.67
2.67
1.33
4.0
5.67
-1.33
4.67
4.0
-4.33
4.67
5.33
8.33
4.0
0.67
-5.33
-5.0
-3.67
-1.33
5.67
5.0
3.0
6.33
3.67
6.67
4.67
1.67
-4.0
1.0
2.33
-3.33
5.0
7.67
-1.33
-2.0
7.0
-2.33
-4.0
-5.0
-1.33
0.0
-0.67
1.33

File: 11.75.txt
0.0
-4.33
-18.33
-20.0
-2.33
-1.67
0.67
-0.67
1.0
0.0
-0.33
-0.33
0.0
2.0
-1.0
-1.0
0.67
3.67
0.0
2.0
5.0
-3.67
-1.67
0.33
3.0
1.0
2.67
3.67
-0.33
2.0
-2.33
0.67
-3.33
2.67
7.33
11.67
-0.33
1.0
4.67
0.0
-1.0
4.33
-2.0
6.33
4.0
4.0
0.0
3.33
4.33
6.33
5.33
1.0
-2.0
-3.0
0.33
-1.0
0.33
4.67
-1.33
3.67
-1.0
-4.67
1.33
-1.33
0.33
2.0
4.0
-4.0
2.33
7.33
-3.67
0.0
0.33
-3.0
1.33
1.0
0.33
-0.67
2.33
2.33
-2.67
-5.0
5.33
-6.33
-2.0
0.33
0.33
2.0
0.33
-0.33
-2.67
0.0
-0.67
-6.33
-2.0
-1.33
-1.67
-4.33
-4.67
1.33
0.0
0.67
-5.67
-4.67
-3.33
-11.33
-5.67
-2.67
-6.0
-0.67
2.0
-5.0
-4.67
-3.0
-3.67
6.67
11.33
3.0
-1.0
-0.33
-5.33
-16.67
-3.33
-4.33
-8.33
-12.33
-6.0
-4.33
-9.67
1.0
-7.67
-6.0
-1.67
-5.0
-5.67
0.0
-7.67
-13.0
2.33
1.33
-3.67
-5.67
3.0
-3.67
-11.67
5.67
3.67
23.67
16.33
31.67
17.0
-2.67
3.67
4.67
10.0
4.33
3.67
-3.67
4.0
-3.0
1.33
1.33
6.33
-1.0
9.67
2.0
3.33
7.67
0.33
3.33
4.67
8.33
6.0
-3.0
3.67
-4.67
12.0
10.33
8.33
7.67
11.67
4.0
9.33
6.0
20.67
44.33
98.33
160.33
195.33
198.67
101.33
29.67
2.33
5.67
7.0
8.67
12.33
1.67
5.0
7.67
6.67
2.0
5.67
13.33
3.0
5.67
9.0
6.33
8.0
8.0
14.33
-17.33
1.33
-6.0
2.0
-0.33
18.0
4.67
1.33
14.67
15.33
4.0
-3.33
6.33
-2.0
0.33
1.67
20.0
2.67
10.33
5.33
-8.67
2.0
0.67
12.0
-5.33
8.33
0.0
-5.67
0.67
-5.33
4.67
-3.0
-1.67
5.33
-1.33
-6.33
-0.33
4.0
3.33
-1.67
7.33
12.67
5.67
1.33
-1.0
1.67
-0.33
4.67
-1.0
3.67
11.67
0.33
5.33
-5.0
0.67
-7.33
6.0
-2.67
-1.33
1.67
6.0
11.0
0.33
6.67
2.67
-4.33
-1.33
-7.0
4.0
2.33
2.67
3.0
-2.33
2.67
6.0
0.0
0.67
-1.0
-3.0
2.67
4.0
-0.67
-0.67

File: 12.25.txt
0.0
47.67
-20.33
-1.0
4.67
-1.67
-0.33
0.33
0.0
0.0
0.67
-0.33
0.0
1.0
0.0
-2.0
-1.33
1.67
0.0
3.0
-2.0
-3.67
-3.67
-3.67
2.0
0.0
1.67
-5.33
-1.33
5.0
-6.33
-3.33
-0.33
-0.33
-2.67
-0.33
0.67
6.0
-1.33
2.0
5.0
-1.67
5.0
-1.67
3.0
2.0
-3.0
-4.67
-5.67
2.33
2.33
2.0
-6.0
-9.0
-0.67
0.0
-0.67
-2.33
5.67
5.67
-4.0
-3.67
2.33
-1.33
0.33
3.0
3.0
1.0
-0.67
-3.67
-3.67
-4.0
0.33
0.0
0.33
-2.0
-2.67
-1.67
2.33
0.33
0.33
1.0
-5.67
-1.33
6.0
1.33
1.33
1.0
2.33
-1.33
-1.67
-2.0
-0.67
-0.33
2.0
0.67
1.33
-5.33
-3.67
3.33
-6.0
-1.33
-7.67
-4.67
-4.33
-0.33
-8.67
-4.67
2.0
-3.67
-5.0
-4.0
-2.67
-6.0
0.33
-2.33
9.33
16.0
1.0
-0.33
-3.33
-10.67
-4.33
-6.33
-4.33
-8.33
-10.0
-8.33
-8.67
-15.0
-4.67
-2.0
-13.67
-8.0
-3.67
-4.0
-10.67
-11.0
-4.67
-4.67
-10.67
-13.67
-8.0
-12.67
0.33
-6.33
4.67
4.67
0.33
12.67
-1.0
-2.67
1.67
-1.33
4.0
-0.67
-7.33
-5.67
0.0
-1.0
-2.67
-2.67
-6.67
3.0
5.67
1.0
-1.67
-2.33
5.33
-9.67
-8.33
4.33
17.0
7.0
-1.33
3.33
4.0
4.33
-2.67
9.67
-3.33
0.0
-0.67
16.0
4.67
23.33
85.33
120.33
138.33
124.67
70.33
21.67
3.33
7.67
1.0
-0.33
6.33
-0.33
4.0
9.67
4.67
7.0
-5.33
6.33
4.0
0.67
3.0
-5.67
-3.0
9.0
6.33
-0.33
-3.67
8.0
0.0
6.67
-6.0
4.67
15.33
10.67
-5.67
1.0
13.67
-3.67
-2.0
-8.67
2.67
12.0
17.67
4.33
-19.67
2.33
-7.0
-5.33
4.0
-2.33
3.33
-5.0
5.33
6.67
2.67
6.67
-9.0
0.33
6.33
2.67
1.67
12.67
2.0
2.33
15.33
-7.67
1.67
3.67
-2.67
0.0
5.67
-4.33
-0.33
-4.0
-6.33
3.67
1.33
7.33
5.0
1.67
-5.33
-9.0
-2.67
1.67
-1.33
15.0
8.0
-2.67
7.67
8.67
-1.33
-5.33
-4.0
4.0
8.33
-0.33
1.0
3.67
-0.33
0.0
3.0
-1.33
-8.0
-5.0
0.67
0.0
3.33
-0.67

File: background.txt
0.0
1732.33
1083.33
259.0
37.33
4.67
0.33
0.67
0.0
0.0
0.33
0.33
1.0
0.0
1.0
2.0
2.33
2.33
5.0
7.0
8.0
11.67
12.67
9.67
10.0
8.0
9.33
11.33
14.33
8.0
12.33
14.33
7.33
11.33
8.67
8.33
10.33
10.0
10.33
9.0
10.0
11.67
8.0
9.67
7.0
11.0
10.0
7.67
12.67
6.67
7.67
10.0
11.0
13.0
7.67
10.0
7.67
7.33
6.33
8.33
8.0
11.67
4.67
9.33
6.67
7.0
3.0
6.0
6.67
5.67
7.67
9.0
7.67
8.0
5.67
6.0
8.67
4.67
4.67
3.67
4.67
7.0
8.67
7.33
5.0
4.67
4.67
6.0
4.67
5.33
5.67
5.0
6.67
8.33
7.0
7.33
6.67
11.33
8.67
8.67
8.0
7.33
11.67
9.67
9.33
15.33
15.67
11.67
11.0
11.67
11.0
16.0
11.67
14.0
11.67
12.33
13.67
14.0
19.0
13.33
14.33
18.67
15.33
16.33
19.33
19.33
19.0
17.33
18.67
22.0
21.67
18.0
19.67
22.0
21.67
15.0
20.67
24.0
18.67
18.67
16.67
22.67
18.0
23.67
23.67
17.33
21.33
21.33
16.67
20.33
18.0
23.67
16.33
14.33
15.0
17.67
17.33
16.67
14.0
13.0
14.67
13.67
16.67
21.0
29.33
22.0
15.67
15.33
30.67
46.67
25.33
14.67
12.0
16.0
13.33
15.67
11.0
15.67
16.67
13.33
15.33
18.0
16.67
16.0
19.33
16.67
19.67
22.67
21.67
22.33
24.67
29.33
26.67
20.33
24.0
25.33
23.67
28.33
22.0
18.33
22.33
22.0
28.33
22.67
28.0
23.33
30.0
24.67
26.0
29.0
24.67
34.33
27.67
31.0
32.0
30.33
29.0
28.33
28.67
31.33
29.67
31.0
25.33
27.67
32.0
29.67
33.33
22.0
29.33
28.67
37.67
29.67
29.0
27.33
24.0
30.33
21.67
24.0
25.67
25.33
20.33
19.33
25.0
22.67
21.67
25.33
26.33
19.33
22.0
21.67
20.67
26.67
19.33
17.33
15.67
17.0
16.33
17.33
17.33
17.0
14.33
14.33
12.67
11.67
12.0
14.33
17.33
16.0
17.67
11.33
11.33
10.0
10.0
13.67
8.33
11.33
13.33
12.33
12.0
9.0
7.67
8.33
8.0
8.33
10.33
8.0
7.0
11.33
11.0
14.0
6.33
7.0
8.67
9.67