Folder: EDX-Concrete-Analysis/EDX Back Ups and Old Files/Spectra copy 3.3.23/Samples/High pH SF 25C 9d

Note: README.md
This is Anthony's repository for doing all sorts of Energy Dispersive X-ray Analysis on concrete samples.

File: 6.75.txt
0.0
66.67
24.0
-15.33
-4.0
0.0
-1.0
-0.33
1.67
0.33
0.67
0.67
-0.33
-1.33
2.67
2.0
-2.0
-0.33
-1.67
-1.67
-3.0
4.67
-2.0
4.67
-0.33
4.33
3.67
6.67
6.0
4.67
1.33
5.0
3.33
1.67
3.67
4.67
-0.67
4.0
-3.33
-0.33
6.33
-3.33
-1.67
-2.33
7.33
-3.0
11.33
-1.33
-1.67
-2.67
-2.0
3.33
0.67
-1.0
2.33
3.33
3.33
0.33
2.33
2.0
0.33
0.0
1.33
3.0
1.67
8.33
5.33
1.67
1.67
-0.33
-3.67
-1.33
7.33
0.33
-2.67
2.0
-4.0
0.67
1.0
6.0
0.33
5.33
0.0
4.0
-5.0
-0.33
2.33
6.67
-3.33
-3.33
3.67
2.33
-4.33
5.0
0.0
0.67
-2.33
-4.33
-1.0
-3.33
4.0
2.0
-5.0
1.67
-1.0
-1.67
2.0
-2.67
2.67
2.0
1.67
-4.33
4.33
4.67
9.33
16.0
18.33
14.67
7.67
2.67
8.67
12.33
8.33
9.33
3.67
-1.67
2.33
-2.67
2.33
-2.67
12.0
2.0
-1.0
3.0
-1.0
7.0
6.0
-0.67
0.33
0.33
5.0
-5.33
-7.33
-0.33
-2.67
-5.67
11.0
9.33
26.33
6.0
3.0
12.33
-1.67
11.33
8.33
7.67
5.67
10.67
1.33
7.0
3.67
7.33
8.33
22.0
9.0
26.67
14.67
6.33
16.0
6.33
8.67
3.33
11.33
10.67
7.0
-0.33
6.0
7.67
13.67
14.0
12.67
5.67
8.67
21.0
19.33
29.67
48.33
74.0
50.0
53.0
37.33
18.67
-2.0
13.67
1.0
8.67
8.67
28.33
9.33
9.33
6.0
6.0
18.0
8.67
16.0
4.67
1.33
10.33
8.33
1.33
4.0
-1.0
15.0
8.67
18.67
5.67
14.33
25.33
29.33
20.33
16.67
6.67
-0.33
10.67
7.33
-2.67
14.67
1.0
10.67
9.67
20.0
12.0
2.67
18.67
15.67
-2.0
1.33
16.33
-1.33
7.67
8.67
5.67
9.67
2.0
8.33
-0.33
-1.0
7.33
-2.33
1.0
-1.33
8.33
2.33
10.0
7.33
11.0
3.0
6.0
13.33
-1.0
7.67
8.33
7.67
-2.33
6.33
10.0
1.67
2.0
-1.67
-3.67
12.67
6.0
3.67
-1.33
13.0
0.33
4.0
2.33
-1.0
3.0
-2.33
1.0
8.0
1.67
5.0
6.33
4.33
-3.67
7.0
-2.33
2.33
-0.33
7.67
3.67

File: 7.0.txt
0.0
13.67
21.0
33.67
-4.0
0.0
1.0
-0.33
-0.33
-0.67
-0.33
0.67
0.67
-1.33
-0.33
2.0
0.0
-1.33
-0.67
2.33
4.0
1.67
-4.0
5.67
-3.33
7.33
4.67
-0.33
-4.0
4.67
2.33
2.0
0.33
8.67
2.67
5.67
5.33
6.0
-2.33
1.67
2.33
6.67
8.33
-2.33
1.33
-5.0
4.33
1.67
1.33
9.33
8.0
5.33
3.67
2.0
9.33
-1.67
1.33
8.33
1.33
4.0
9.33
-7.0
11.33
-1.0
-1.33
7.33
4.33
2.67
-3.33
-0.33
-1.67
0.67
5.33
-1.67
-0.67
1.0
1.0
5.67
1.0
5.0
1.33
6.33
-2.0
2.0
1.0
2.67
1.33
3.67
-4.33
-1.33
1.67
0.33
-2.33
-3.0
4.0
-0.33
0.67
-4.33
3.0
-1.33
-1.0
7.0
-3.0
-0.33
-5.0
-1.67
-1.0
1.33
-3.33
3.0
1.67
2.67
-3.67
2.67
2.33
17.0
23.33
18.67
8.67
3.67
1.67
3.33
8.33
3.33
3.67
3.33
3.33
1.33
6.33
6.33
0.0
3.0
9.0
10.0
1.0
4.0
1.0
1.33
-0.67
12.33
7.0
-8.33
1.67
2.67
2.33
-5.67
6.0
13.33
16.33
24.0
13.0
20.33
3.33
4.33
6.33
4.67
16.67
11.67
6.33
2.0
5.67
9.33
8.33
21.0
12.0
14.67
9.67
20.33
16.0
13.33
8.67
13.33
7.33
10.67
5.0
4.67
12.0
6.67
7.67
8.0
11.67
6.67
12.67
16.0
26.33
27.67
35.33
58.0
66.0
57.0
27.33
10.67
12.0
11.67
-1.0
27.67
10.67
9.33
12.33
12.33
9.0
9.0
14.0
11.67
12.0
8.67
6.33
-0.67
5.33
19.33
-3.0
8.0
7.0
6.67
8.67
-0.33
33.33
32.33
30.33
16.33
20.67
12.67
15.67
9.67
18.33
8.33
23.67
-1.0
30.67
0.67
2.0
2.0
-6.33
5.67
6.67
2.0
5.33
12.33
15.67
-5.33
-2.33
10.67
6.67
2.0
6.33
-6.33
0.0
1.33
13.67
9.0
-0.33
0.33
11.33
5.0
3.33
4.0
2.0
-2.0
16.33
-3.0
-0.33
7.33
6.67
2.67
7.33
2.0
6.67
2.0
1.33
3.33
5.67
-1.0
1.67
7.67
5.0
6.33
10.0
-2.67
0.0
-1.0
1.67
5.0
7.0
-4.33
8.0
3.33
-2.67
2.33
-2.0
4.67
-3.67
-4.33
6.67
-1.33

File: 8.5.txt
0.0
-26.33
-36.0
-23.33
7.0
-6.0
-1.0
0.67
-0.33
-0.67
-0.33
0.67
-0.33
-1.33
0.67
0.0
1.0
0.67
5.33
2.33
2.0
-1.33
0.0
0.67
4.67
0.33
5.67
4.67
4.0
6.67
3.33
1.0
0.33
0.67
-1.33
4.67
2.33
-1.0
1.67
-3.33
5.33
-2.33
12.33
-3.33
1.33
-3.0
3.33
-2.33
-0.67
10.33
-1.0
1.33
3.67
5.0
5.33
3.33
2.33
-0.67
1.33
5.0
-0.67
-2.0
-3.67
1.0
-3.33
5.33
-1.67
-5.33
-1.33
2.67
-1.67
-1.33
4.33
-1.67
-2.67
-3.0
-3.0
-2.33
-3.0
2.0
1.33
2.33
-1.0
1.0
1.0
-4.33
6.33
-0.33
-0.33
0.67
4.67
1.33
-3.33
-3.0
2.0
-2.33
-0.33
-6.33
0.0
-4.33
0.0
0.0
-4.0
6.67
-2.0
-2.67
4.0
-1.67
0.67
1.0
-2.33
-2.33
4.33
3.67
14.33
13.0
25.33
27.67
12.67
10.67
3.67
3.33
1.33
4.33
7.67
2.33
5.33
3.33
2.33
9.33
1.0
-3.0
-2.0
-3.0
-3.0
5.0
4.0
1.33
3.33
1.33
5.0
2.67
1.67
0.67
2.33
0.33
5.0
18.33
15.33
7.0
16.0
6.33
15.33
11.33
6.33
1.67
16.67
10.67
5.33
-2.0
12.67
6.33
7.33
20.0
8.0
16.67
2.67
13.33
17.0
12.33
5.67
12.33
10.33
7.67
25.0
7.67
14.0
12.67
6.67
9.0
13.67
7.67
13.67
21.0
21.33
26.67
49.33
64.0
88.0
69.0
42.33
11.67
13.0
11.67
13.0
10.67
10.67
2.33
-0.67
23.33
-1.0
4.0
11.0
14.67
17.0
17.67
7.33
-2.67
-8.67
13.33
0.0
9.0
-3.0
14.67
5.67
14.67
31.33
25.33
48.33
14.33
27.67
10.67
4.67
6.67
-0.67
9.33
3.67
-8.0
6.67
-4.33
3.0
4.0
10.67
-0.33
8.67
11.0
6.33
20.33
19.67
6.67
6.67
5.67
14.67
12.0
2.33
1.67
10.0
10.33
8.67
15.0
-1.33
8.33
8.33
3.0
8.33
7.0
-4.0
-1.0
8.33
-4.0
4.67
8.33
0.67
1.67
-3.67
4.0
5.67
-1.0
1.33
-2.67
-5.33
5.0
6.67
1.67
3.0
5.33
6.0
3.33
3.0
1.0
-0.33
8.0
8.0
-4.33
-1.0
4.33
7.33
1.33
-1.0
0.67
0.33
-1.33
2.67
-0.33

File: 9.75.txt
0.0
97.67
31.0
4.67
3.0
-3.0
1.0
-0.33
-0.33
0.33
3.67
0.67
-0.33
-1.33
1.67
1.0
-2.0
-0.33
-1.67
0.33
-2.0
-3.33
3.0
8.67
-5.33
11.33
2.67
6.67
3.0
0.67
7.33
2.0
-1.67
-0.33
2.67
5.67
-0.67
4.0
0.67
2.67
7.33
0.67
-1.67
-1.33
0.33
-8.0
-1.67
4.67
1.33
9.33
4.0
7.33
6.67
0.0
0.33
1.33
0.33
-5.67
-5.67
-2.0
1.33
1.0
-0.67
4.0
-2.33
9.33
2.33
-0.33
0.67
1.67
-2.67
-1.33
4.33
-1.67
2.33
-1.0
-2.0
-0.33
-1.0
6.0
4.33
-2.67
0.0
10.0
-1.0
0.67
2.33
0.67
-2.33
-0.33
4.67
-2.67
-1.33
1.0
2.0
-1.33
1.67
-4.33
1.0
-0.33
-1.0
0.0
-3.0
0.67
-7.0
-2.67
-4.0
6.33
-3.33
5.0
3.67
0.67
2.33
0.67
6.33
15.0
22.33
19.67
9.67
6.67
11.67
1.33
5.33
9.33
1.67
1.33
3.33
1.33
1.33
2.33
3.0
-4.0
-1.0
1.0
3.0
8.0
8.0
7.33
1.33
3.33
0.0
-2.33
-3.33
2.67
-8.67
9.33
20.0
20.33
22.33
21.0
4.0
8.33
5.33
12.33
8.33
-7.33
13.67
7.67
4.33
2.0
10.67
9.33
13.33
12.0
2.0
19.67
10.67
8.33
-6.0
12.33
3.67
2.33
10.33
8.67
10.0
12.67
8.0
4.67
5.67
4.0
4.67
18.67
15.67
5.0
12.33
15.67
62.33
104.0
120.0
114.0
44.33
34.67
13.0
1.67
11.0
9.67
5.67
5.33
19.33
10.33
6.0
11.0
7.0
19.67
2.0
6.67
4.33
3.33
3.33
9.33
-1.0
6.0
3.0
8.67
14.67
9.67
18.33
25.33
26.33
16.33
13.67
16.67
4.67
2.67
1.33
-0.67
10.67
1.0
13.67
10.67
11.0
9.0
6.67
2.67
8.67
8.0
8.33
8.33
7.67
-7.33
8.67
3.67
-1.33
9.0
10.33
-2.33
5.0
13.33
4.67
12.0
3.67
1.33
19.33
4.0
8.33
7.0
0.0
4.0
7.33
-2.0
9.67
4.33
7.67
3.67
5.33
4.0
-2.33
-3.0
5.33
5.33
5.67
7.0
1.67
2.67
8.0
1.33
3.0
0.33
7.0
1.0
2.67
5.0
7.0
-0.33
1.0
5.33
-2.67
0.33
3.0
-1.33
-0.67
-1.33
-0.33
2.67

File: 11.0.txt
0.0
63.67
-8.0
-23.33
2.0
-6.0
-1.0
-0.33
-0.33
0.33
1.67
-0.33
-0.33
-0.33
0.67
0.0
-2.0
-2.33
2.33
4.33
5.0
-0.33
-4.0
-1.33
0.67
1.33
7.67
0.67
-4.0
1.67
6.33
7.0
4.33
11.67
1.67
9.67
-2.67
1.0
-0.33
0.67
2.33
-1.33
4.33
0.67
1.33
-2.0
1.33
4.67
3.33
-1.67
3.0
5.33
1.67
1.0
-1.67
3.33
2.33
-4.67
-0.67
3.0
-1.67
-7.0
5.33
4.0
2.67
3.33
1.33
-3.33
2.67
-0.33
-2.67
3.67
5.33
6.33
2.33
-2.0
-5.0
0.67
1.0
3.0
2.33
1.33
6.0
5.0
-5.0
-0.33
-1.67
3.67
-4.33
-1.33
2.67
-0.67
-4.33
1.0
3.0
-2.33
-3.33
-0.33
2.0
0.67
1.0
-2.0
-1.0
-2.33
-4.0
1.33
-1.0
1.33
-2.33
6.0
1.67
-2.33
-3.67
1.67
4.33
9.0
0.33
14.67
1.67
4.67
3.67
11.33
11.33
3.33
4.67
1.33
6.33
8.33
3.33
0.33
0.0
-8.0
1.0
2.0
4.0
9.0
4.0
2.33
0.33
6.33
3.0
-0.33
-0.33
9.67
-3.67
5.33
10.0
17.33
28.33
17.0
24.0
12.33
8.33
12.33
8.33
9.67
9.67
14.67
9.33
12.0
5.67
7.33
18.33
7.0
4.0
15.67
14.67
10.33
1.0
16.33
3.67
10.33
7.33
10.67
12.0
11.67
7.0
7.67
11.67
6.0
13.67
2.67
10.67
21.0
12.33
37.67
119.33
181.0
221.0
127.0
69.33
27.67
6.0
1.67
26.0
4.67
7.67
17.33
1.33
11.33
6.0
9.0
13.0
18.67
5.0
9.67
14.33
10.33
3.33
-1.67
-3.0
4.0
6.0
7.67
13.67
-1.33
5.33
11.33
22.33
2.33
8.67
13.67
-4.33
-1.33
18.33
-5.67
24.67
0.0
6.67
17.67
18.0
5.0
4.67
-2.33
14.67
-4.0
0.33
13.33
-6.33
-6.33
3.67
-5.33
5.67
5.0
3.33
-2.33
9.0
9.33
0.67
4.0
0.67
12.33
0.33
3.0
10.33
5.0
3.0
4.0
9.33
2.0
2.67
2.33
-5.33
5.67
8.33
1.0
1.67
3.0
5.33
4.33
2.67
5.0
8.67
-1.33
7.0
-3.67
0.0
1.33
3.0
1.0
3.67
11.0
6.0
-4.33
2.0
1.33
-2.67
-4.67
0.0
2.67
0.33
-3.33
7.67
5.67

File: 11.25.txt
0.0
48.67
-39.0
-41.33
3.0
-4.0
0.0
-0.33
0.67
-0.67
-0.33
-0.33
0.67
-1.33
1.67
3.0
1.0
-1.33
-2.67
2.33
1.0
2.67
2.0
-0.33
-0.33
4.33
3.67
4.67
6.0
5.67
5.33
3.0
-1.67
9.67
1.67
8.67
-1.67
5.0
-2.33
-0.33
5.33
-0.33
8.33
7.67
6.33
0.0
-2.67
4.67
4.33
-3.67
7.0
3.33
4.67
1.0
-0.67
3.33
-2.67
2.33
-0.67
9.0
-2.67
1.0
3.33
2.0
-3.33
1.33
2.33
0.67
1.67
2.67
-2.67
1.67
5.33
-2.67
-1.67
0.0
-1.0
1.67
0.0
1.0
2.33
-0.67
2.0
3.0
-1.0
-3.33
3.33
1.67
-1.33
-1.33
4.67
0.33
1.67
2.0
4.0
0.67
-2.33
-1.33
2.0
-1.33
-1.0
1.0
-2.0
2.67
-8.0
-4.67
-2.0
3.33
-2.33
6.0
3.67
-7.33
-2.67
2.67
0.33
6.0
11.33
7.67
16.67
1.67
2.67
-2.67
10.33
-1.67
2.67
5.33
6.33
8.33
4.33
1.33
3.0
1.0
0.0
13.0
-5.0
10.0
4.0
1.33
3.33
9.33
11.0
3.67
-1.33
3.67
-0.67
-0.67
11.0
24.33
30.33
24.0
16.0
1.33
11.33
7.33
8.33
3.67
0.67
14.67
6.33
6.0
-2.33
7.33
7.33
10.0
15.0
19.67
2.67
0.33
15.0
9.33
2.67
9.33
3.33
10.67
7.0
15.67
8.0
4.67
4.67
19.0
9.67
9.67
10.67
22.0
8.33
50.67
120.33
211.0
258.0
186.0
88.33
14.67
8.0
16.67
18.0
3.67
7.67
16.33
15.33
11.33
9.0
-1.0
16.0
10.67
9.0
13.67
9.33
0.33
-3.67
17.33
4.0
18.0
3.0
7.67
14.67
2.67
16.33
4.33
1.33
0.33
5.67
5.67
4.67
4.67
-5.67
7.33
8.67
1.0
18.67
4.67
14.0
2.0
3.67
11.67
-4.33
8.0
7.33
15.33
1.67
-3.33
4.67
3.67
7.67
0.0
-2.67
11.67
2.0
14.33
3.67
6.0
8.67
1.33
7.33
7.0
7.33
2.0
1.0
-2.0
7.33
-11.0
-1.33
6.33
-2.33
11.67
2.33
4.0
2.67
1.0
-1.67
1.33
1.67
-7.0
4.67
-0.33
0.0
8.33
-4.0
1.33
-3.0
-3.0
0.67
5.0
6.0
-0.33
-1.0
-1.67
-0.67
-0.67
-1.0
-2.33
-0.67
-2.33
3.67
0.67

File: 12.0.txt
0.0
-64.33
-8.0
3.67
6.0
-6.0
1.0
-0.33
-0.33
0.33
-0.33
-0.33
-0.33
-1.33
-0.33
0.0
-2.0
-2.33
1.33
-1.67
1.0
-1.33
-6.0
-0.33
2.67
6.33
2.67
5.67
-1.0
1.67
-0.67
7.0
-0.67
4.67
-0.33
-1.33
-2.67
4.0
0.67
-2.33
3.33
0.67
-1.67
-1.33
1.33
0.0
2.33
-1.33
-3.67
-0.67
1.0
5.33
-2.33
-6.0
1.33
-1.67
-0.67
-2.67
-2.67
0.0
-3.67
-3.0
5.33
1.0
1.67
0.33
1.33
-4.33
-0.33
1.67
-2.67
-2.33
4.33
8.33
-1.67
2.0
0.0
2.67
-4.0
3.0
1.33
-1.67
2.0
-1.0
-1.0
-0.33
2.33
1.67
1.67
-1.33
-2.33
1.33
-5.33
-2.0
3.0
1.67
-1.33
-3.33
2.0
1.67
-3.0
7.0
1.0
3.67
-4.0
2.33
-1.0
-4.67
-0.33
4.0
-0.33
-0.33
-4.67
1.67
-0.67
-2.0
-0.67
-1.33
7.67
0.67
6.67
-0.67
16.33
-1.67
2.67
-2.67
12.33
0.33
4.33
-3.67
-1.0
8.0
6.0
7.0
2.0
12.0
2.0
1.33
0.33
6.33
7.0
-1.33
4.67
5.67
9.33
1.33
4.0
31.33
25.33
28.0
21.0
17.33
14.33
5.33
3.33
6.67
7.67
4.67
10.33
8.0
5.67
9.33
2.33
11.0
21.0
15.67
11.67
9.33
14.0
20.33
6.67
9.33
9.33
4.67
20.0
9.67
-1.0
11.67
4.67
5.0
13.67
2.67
7.67
19.0
26.33
39.67
144.33
282.0
346.0
283.0
131.33
36.67
6.0
21.67
15.0
13.67
4.67
10.33
5.33
9.33
6.0
7.0
17.0
-0.33
8.0
10.67
6.33
4.33
10.33
-4.67
-14.0
12.0
-8.0
7.67
-1.33
3.67
12.33
6.33
1.33
12.33
16.67
6.67
-8.33
-3.33
10.33
7.33
19.67
7.0
36.67
-0.33
18.0
19.0
14.67
3.67
9.67
8.0
-6.67
15.33
9.67
8.67
7.67
6.67
2.67
9.0
7.33
-4.33
-5.0
8.33
7.67
15.0
5.67
0.33
12.33
-2.0
2.33
1.0
0.0
4.0
14.33
-2.0
9.67
9.33
0.67
8.67
3.33
3.0
3.67
-1.0
-3.67
7.33
2.67
-2.0
5.67
9.67
7.0
1.33
0.0
-0.67
5.0
1.0
-1.33
8.0
5.0
-3.33
1.0
3.33
-1.67
1.33
0.0
-1.33
-3.67
-6.33
1.67
5.67

File: 12.25.txt
0.0
56.67
62.0
-16.33
5.0
-7.0
0.0
-0.33
-0.33
-0.67
0.67
0.67
1.67
-0.33
1.67
0.0
-1.0
2.67
-2.67
-1.67
-4.0
1.67
-4.0
10.67
1.67
4.33
10.67
1.67
-3.0
2.67
2.33
2.0
5.33
4.67
-1.33
1.67
3.33
-2.0
-2.33
-0.33
2.33
-1.33
1.33
4.67
4.33
-7.0
-1.67
-3.33
3.33
1.33
0.0
-0.67
3.67
5.0
-1.67
0.33
0.33
2.33
-0.67
0.0
-0.67
-1.0
-2.67
3.0
-5.33
1.33
0.33
-7.33
4.67
4.67
-1.67
-1.33
1.33
1.33
-1.67
2.0
-3.0
7.67
-1.0
5.0
-0.67
2.33
2.0
3.0
-1.0
-4.33
4.33
-1.33
1.67
1.67
-1.33
-0.67
-5.33
-1.0
1.0
-0.33
-3.33
-1.33
-2.0
-2.33
-2.0
1.0
-2.0
-1.33
-5.0
0.33
-2.0
-2.67
-1.33
-1.0
-2.33
-1.33
2.33
-1.33
4.33
0.0
3.33
1.67
0.67
3.67
-0.33
3.33
2.33
-0.67
-0.33
1.33
6.33
0.33
-4.67
-0.67
-2.0
-5.0
2.0
2.0
0.0
0.0
4.0
1.33
-2.67
2.33
0.0
-7.33
-4.33
9.67
-4.67
-2.67
7.0
17.33
17.33
13.0
-2.0
0.33
-0.67
-4.67
-1.67
-3.33
7.67
7.67
-0.67
1.0
0.67
4.33
4.33
0.0
4.0
17.67
1.67
4.33
8.0
6.33
4.67
10.33
10.33
2.67
6.0
14.67
-4.0
8.67
-0.33
-1.0
10.67
8.67
-0.33
4.0
1.33
28.67
83.33
168.0
180.0
192.0
81.33
29.67
5.0
6.67
9.0
4.67
-2.33
12.33
5.33
-3.67
2.0
-2.0
5.0
-1.33
-1.0
5.67
-0.67
-3.67
-3.67
7.33
-6.0
-6.0
-1.0
1.67
2.67
3.67
15.33
6.33
7.33
-8.67
12.67
1.67
-5.33
0.67
4.33
4.33
4.67
-3.0
19.67
-4.33
14.0
4.0
-0.33
8.67
-2.33
8.0
18.33
7.33
-0.33
5.67
5.67
5.67
6.67
0.0
-6.67
-4.33
5.0
3.33
2.67
0.0
-1.33
6.33
6.33
-1.0
-0.67
2.0
3.0
7.0
8.33
-4.0
8.67
0.33
1.67
-2.33
0.33
5.0
-0.33
-3.0
1.33
-3.67
8.67
4.0
0.67
-1.33
6.0
-1.67
3.0
2.33
1.0
-6.0
-4.33
2.0
6.0
2.67
4.0
3.33
4.33
0.33
-1.0
1.67
1.33
-2.33
-4.33
2.67