Folder: EDX-Concrete-Analysis/EDX Back Ups and Old Files/Spectra copy 3.3.23/Samples/Low pH SF 25C 14d

Note: README.md
This is Anthony's repository for doing all sorts of Energy Dispersive X-ray Analysis on concrete samples.

File: 6.5.txt
0.0
53.67
43.67
-46.33
13.33
-1.0
-1.0
0.67
-0.33
-0.33
1.33
-0.33
0.0
0.67
0.33
1.67
0.0
2.0
1.0
0.33
1.33
-3.33
5.33
6.33
3.33
-3.0
3.67
2.33
5.33
2.0
-2.0
3.67
0.0
6.67
3.67
6.67
4.0
7.33
0.0
3.67
-5.33
1.33
1.33
2.67
4.67
6.33
2.0
6.67
7.67
5.33
0.67
5.33
0.33
-0.33
8.67
2.0
3.0
10.33
4.0
4.0
-0.67
5.0
0.67
1.67
5.33
2.67
2.33
4.0
5.33
2.67
4.33
4.0
-0.67
1.0
8.0
-3.33
0.0
0.67
3.67
6.0
1.0
5.0
0.33
-0.33
2.33
3.67
0.67
1.67
2.0
4.67
3.0
2.0
0.67
3.67
-2.67
-2.0
2.67
4.67
-4.0
-0.33
2.33
3.67
3.0
2.0
-2.33
1.67
-1.33
-2.0
0.67
1.33
0.0
5.67
-3.0
0.67
3.0
-0.33
3.33
1.33
7.0
3.33
4.33
0.0
9.67
-1.0
1.67
5.33
1.67
9.33
10.33
1.67
3.67
2.67
3.0
16.67
9.0
13.0
6.67
8.33
7.67
14.33
20.33
23.67
8.67
8.67
7.0
9.33
13.33
8.0
11.33
22.0
23.67
10.67
24.33
22.33
20.67
12.0
20.0
12.33
16.33
15.0
11.33
22.67
16.67
17.0
13.67
14.67
12.33
17.33
27.67
87.33
131.67
89.67
64.67
9.33
5.67
27.33
24.33
31.33
27.67
23.33
27.0
18.33
6.67
19.67
12.0
15.0
9.33
15.33
27.33
46.33
27.67
17.33
6.67
24.0
21.33
16.0
23.0
10.67
18.67
1.67
10.0
8.0
7.33
12.0
12.33
11.0
11.33
14.33
7.0
23.33
12.67
13.67
17.67
11.33
1.0
3.0
3.33
16.33
5.33
22.33
11.33
14.67
8.33
19.0
4.33
3.33
13.67
-7.0
33.33
13.0
15.0
13.0
19.0
-5.33
20.33
12.33
5.67
11.0
5.33
6.0
9.33
7.0
6.0
8.67
-6.0
7.67
1.0
5.67
7.33
0.67
16.33
6.67
9.67
1.33
0.0
3.67
6.0
3.67
8.33
5.67
16.0
-4.33
0.67
3.67
-2.0
8.67
-7.33
6.0
5.67
12.33
4.67
7.33
3.67
-4.0
2.33
-1.67
7.67
5.0
1.33
-4.0
-2.0
5.33
5.67
12.33
5.33
5.67
1.33
7.33
1.33
0.67
6.33
1.0
4.33
1.0

File: 7.0.txt
0.0
-39.33
57.67
-7.33
1.33
-1.0
0.0
-0.33
-0.33
-0.33
-0.67
-0.33
1.0
-1.33
-0.67
1.67
1.0
1.0
0.0
2.33
1.33
0.67
5.33
4.33
6.33
-2.0
7.67
3.33
2.33
5.0
-1.0
0.67
8.0
4.67
6.67
2.67
8.0
-2.67
7.0
0.67
3.67
-2.67
1.33
1.67
2.67
3.33
2.0
4.67
6.67
-3.67
6.67
1.33
-1.67
-1.33
5.67
3.0
1.0
-1.67
3.0
3.0
-3.67
3.0
0.67
1.67
4.33
4.67
2.33
5.0
6.33
-0.33
2.33
0.0
5.33
7.0
0.0
1.67
1.0
6.67
0.67
1.0
1.0
2.0
-2.67
3.67
0.33
2.67
9.67
0.67
0.0
-2.33
4.0
3.0
-1.33
-0.33
3.33
0.0
0.67
0.67
2.0
2.67
4.33
4.67
4.0
-1.0
1.67
1.67
3.67
-2.0
1.67
2.33
-4.0
5.67
10.0
-2.33
3.0
-0.33
8.33
12.33
6.0
0.33
10.33
4.0
6.67
6.0
2.67
3.33
14.67
4.33
8.33
0.67
12.67
5.67
6.0
20.67
34.0
27.0
12.67
12.33
14.67
14.33
27.33
32.67
23.67
10.67
16.0
9.33
8.33
13.0
13.33
12.0
27.67
27.67
37.33
39.33
44.67
21.0
27.0
22.33
9.33
8.0
4.33
15.67
5.67
13.0
15.67
21.67
7.33
12.33
24.67
48.33
70.67
63.67
47.67
30.33
61.67
39.33
33.33
35.33
59.67
54.33
42.0
23.33
9.67
18.67
12.0
9.0
6.33
16.33
27.33
19.33
26.67
10.33
10.67
18.0
20.33
20.0
31.0
11.67
4.67
2.67
12.0
5.0
3.33
18.0
17.33
13.0
6.33
5.33
14.0
8.33
1.67
10.67
6.67
9.33
2.0
13.0
6.33
5.33
12.33
4.33
19.33
11.67
24.33
19.0
15.33
11.33
27.67
17.0
17.33
20.0
17.0
12.0
5.0
18.67
10.33
7.33
13.67
11.0
6.33
7.0
0.33
7.0
16.0
4.67
4.0
-0.33
3.0
-7.33
6.33
12.67
7.33
6.67
0.67
12.33
2.0
-0.33
13.0
2.67
-2.67
7.67
13.0
7.67
0.67
-1.33
-1.0
1.67
3.67
7.0
6.67
2.33
0.67
5.33
5.67
2.0
5.33
9.33
6.67
2.0
5.33
3.0
1.0
4.33
4.67
7.33
0.33
7.67
-1.67
-5.67
9.33
0.67
1.33
5.0
0.33
1.0

File: 7.5.txt
0.0
12.67
-11.33
-36.33
-5.67
-2.0
1.0
-0.33
0.67
-0.33
0.33
-0.33
0.0
0.67
0.33
1.67
-1.0
0.0
-2.0
-1.67
-1.67
-0.33
5.33
2.33
-0.67
2.0
-0.33
1.33
3.33
2.0
1.0
0.67
8.0
3.67
14.67
-1.33
4.0
5.33
-3.0
0.67
1.67
-0.67
1.33
1.67
-1.33
11.33
5.0
4.67
6.67
7.33
-2.33
0.33
0.33
-0.33
7.67
9.0
3.0
6.33
-2.0
2.0
1.33
3.0
-2.33
2.67
3.33
4.67
2.33
7.0
3.33
0.67
-0.67
6.0
7.33
4.0
-4.0
-2.33
1.0
3.67
0.67
-1.0
-1.0
1.0
1.33
1.67
3.33
0.67
2.67
0.67
0.0
-1.33
4.0
-1.0
3.67
-3.33
4.33
5.0
1.67
-1.33
0.0
3.67
0.33
1.67
1.0
1.0
-2.33
3.67
2.67
-5.0
2.67
6.33
-3.0
4.67
-2.0
2.67
2.0
6.67
2.33
4.33
3.0
10.33
4.33
8.0
7.67
7.0
4.67
3.33
4.67
4.33
7.33
-0.33
12.67
9.67
7.0
16.67
24.0
17.0
11.67
10.33
8.67
8.33
16.33
21.67
33.67
6.67
7.0
0.33
25.33
19.0
23.33
22.0
49.67
27.67
37.33
41.33
38.67
29.0
30.0
28.33
6.33
21.0
9.33
6.67
6.67
17.0
16.67
10.67
20.33
8.33
14.67
29.33
92.67
105.67
129.67
56.33
57.67
95.33
63.33
65.33
95.67
64.33
40.0
29.33
3.67
13.67
20.0
11.0
13.33
20.33
16.33
31.33
26.67
27.33
18.67
16.0
22.33
20.0
18.0
9.67
7.67
11.67
15.0
15.0
-4.67
14.0
11.33
20.0
14.33
17.33
10.0
13.33
16.67
9.67
2.67
11.33
21.0
19.0
10.33
10.33
15.33
6.33
-2.67
9.67
10.33
13.0
13.33
1.33
10.67
9.0
9.33
3.0
9.0
4.0
8.0
-1.33
5.33
17.33
3.67
8.0
2.33
6.0
-1.67
10.0
1.0
8.67
-3.0
9.67
-3.0
1.67
9.33
1.67
3.33
15.67
3.67
6.33
4.0
6.67
10.0
-3.33
-0.67
9.67
11.0
1.67
-0.33
10.67
1.0
6.67
5.67
4.0
3.67
0.33
2.67
2.33
10.67
8.0
2.33
5.33
2.67
3.0
4.33
2.0
4.0
1.33
-2.33
1.33
6.33
-1.33
6.33
-1.67
-3.67
-3.33
2.33
1.0
2.33
-3.0

File: 7.25.txt
0.0
-20.33
-18.33
-18.33
-1.67
-3.0
0.0
-0.33
-0.33
-0.33
0.33
2.67
1.0
-0.33
0.33
-0.33
1.0
2.0
-2.0
3.33
-2.67
8.67
8.33
2.33
-0.67
-7.0
4.67
4.33
8.33
8.0
0.0
4.67
3.0
3.67
6.67
1.67
4.0
2.33
-2.0
-6.33
1.67
6.33
2.33
1.67
3.67
-1.67
2.0
0.67
9.67
1.33
-0.33
-1.67
-1.67
3.67
0.67
5.0
6.0
8.33
-3.0
3.0
6.33
-4.0
-2.33
-3.33
5.33
1.67
2.33
2.0
9.33
5.67
11.33
0.0
2.33
-2.0
1.0
-2.33
-2.0
9.67
-1.33
-1.0
-1.0
7.0
-0.67
0.67
0.33
2.67
1.67
0.67
-2.0
3.67
7.0
4.0
0.67
-0.33
2.33
0.0
3.67
4.67
-2.0
4.67
6.33
1.67
-2.0
-2.0
-0.33
-0.33
0.67
-1.0
6.67
5.33
3.0
1.67
4.0
-2.33
2.0
-4.33
6.33
2.33
5.0
4.33
6.33
8.0
7.67
1.0
1.67
-1.67
9.67
10.33
5.33
-1.33
5.67
2.67
12.0
17.67
27.0
15.0
11.67
6.33
6.67
13.33
22.33
44.67
25.67
9.67
16.0
16.33
10.33
11.0
14.33
14.0
16.67
41.67
55.33
43.33
42.67
22.0
15.0
25.33
7.33
24.0
15.33
9.67
9.67
17.0
24.67
8.67
16.33
8.33
6.67
48.33
58.67
69.67
51.67
42.33
73.67
61.33
52.33
46.33
57.67
44.33
42.0
9.33
9.67
20.67
19.0
8.0
7.33
26.33
27.33
29.33
25.67
16.33
19.67
15.0
19.33
30.0
29.0
14.67
9.67
9.67
11.0
13.0
18.33
5.0
6.33
7.0
16.33
9.33
11.0
8.33
20.67
4.67
1.67
-4.67
4.0
11.0
5.33
13.33
18.33
8.33
6.33
1.67
6.33
20.0
15.33
-3.67
22.67
7.0
5.33
-1.0
5.0
14.0
10.0
15.67
4.33
16.33
11.67
-2.0
9.33
8.0
7.33
10.0
3.0
1.67
-9.0
-0.33
-7.0
-4.33
10.33
2.67
7.33
7.67
2.67
6.33
4.0
10.67
6.0
5.67
2.33
9.67
13.0
0.67
4.67
10.67
7.0
5.67
-3.33
6.0
6.67
3.33
-3.33
2.33
1.67
-3.0
-0.67
3.33
-1.33
7.0
-4.67
1.0
4.0
8.33
0.67
3.33
-1.67
5.67
1.33
1.33
5.33
-0.33
0.33
6.0
3.33
7.0

File: 9.0.txt
0.0
18.67
17.67
-6.33
-7.67
-3.0
-1.0
-0.33
-0.33
0.67
-0.67
0.67
1.0
-1.33
1.33
0.67
0.0
4.0
2.0
-0.67
5.33
11.67
9.33
3.33
3.33
-3.0
1.67
9.33
5.33
5.0
2.0
1.67
5.0
4.67
4.67
1.67
4.0
3.33
5.0
-6.33
3.67
7.33
4.33
3.67
0.67
-2.67
5.0
0.67
6.67
4.33
1.67
2.33
9.33
6.67
2.67
0.0
7.0
0.33
7.0
1.0
1.33
4.0
2.67
2.67
4.33
-0.33
1.33
2.0
8.33
0.67
2.33
6.0
12.33
1.0
-1.0
2.67
-1.0
-0.33
0.67
1.0
2.0
1.0
5.33
0.67
2.33
2.67
2.67
2.67
-3.0
-2.33
5.0
2.0
7.67
-1.33
-1.67
6.0
4.67
-1.33
-3.0
4.67
-0.67
3.67
-2.0
-5.0
-3.33
3.67
-2.33
2.0
4.67
1.33
-2.0
1.67
-2.0
1.67
1.0
-1.33
3.33
2.33
3.0
-1.67
4.33
3.0
7.67
9.0
4.67
10.33
8.67
5.33
7.33
10.67
5.67
0.67
8.0
14.67
34.0
42.0
28.67
23.33
11.67
12.33
31.33
42.67
36.67
14.67
27.0
20.33
10.33
22.0
13.33
14.0
22.67
13.67
24.33
34.33
17.67
18.0
7.0
15.33
12.33
11.0
11.33
14.67
19.67
9.0
21.67
9.67
1.33
5.33
30.67
48.33
108.67
80.67
42.67
27.33
13.67
30.33
31.33
35.33
43.67
43.33
21.0
10.33
8.67
13.67
19.0
0.0
9.33
24.33
24.33
36.33
31.67
11.33
14.67
24.0
25.33
22.0
12.0
25.67
17.67
20.67
12.0
9.0
3.33
14.0
9.33
15.0
12.33
3.33
4.0
13.33
12.67
6.67
6.67
2.33
13.0
10.0
0.33
19.33
13.33
19.33
30.33
11.67
19.33
6.0
7.33
-3.67
7.67
4.0
10.33
16.0
15.0
7.0
10.0
4.67
14.33
-0.67
9.67
-1.0
0.33
12.0
7.33
-1.0
6.0
1.67
-4.0
0.67
8.0
1.67
-0.67
-4.33
3.33
2.67
1.67
13.33
5.0
12.67
1.0
0.67
1.33
13.67
5.0
5.67
-2.33
-0.33
7.0
6.67
-0.33
5.0
2.67
6.33
2.67
2.33
3.67
1.0
5.33
0.33
0.67
6.0
6.33
-4.0
6.0
5.33
7.67
-0.67
1.33
3.67
7.33
-3.67
4.33
3.67
1.33
-4.0
1.33
3.0

File: 10.5.txt
0.0
-21.33
-10.33
-27.33
-0.67
0.0
0.0
-0.33
1.67
-0.33
-0.67
-0.33
1.0
-1.33
-1.67
-1.33
0.0
0.0
-2.0
6.33
4.33
2.67
0.33
7.33
7.33
-4.0
-0.33
-2.67
0.33
4.0
0.0
1.67
6.0
7.67
-0.33
4.67
0.0
4.33
1.0
-4.33
0.67
11.33
1.33
-2.33
6.67
4.33
6.0
4.67
-1.33
-0.67
0.67
6.33
0.33
-1.33
-0.33
-2.0
0.0
-1.67
-1.0
1.0
1.33
-1.0
1.67
0.67
1.33
0.67
1.33
4.0
0.33
0.67
0.33
4.0
5.33
4.0
4.0
-0.33
-2.0
-0.33
0.67
-3.0
-2.0
4.0
2.33
-0.33
1.33
-1.33
0.67
1.67
2.0
4.67
7.0
-1.0
-0.33
-1.33
-1.67
1.0
3.67
4.67
-3.0
1.67
8.33
5.67
0.0
1.0
-3.33
0.67
2.67
-2.0
0.67
1.33
2.0
1.67
0.0
0.67
11.0
1.67
5.33
6.33
3.0
2.33
6.33
5.0
7.67
2.0
12.67
4.33
1.67
10.33
13.33
6.67
10.67
7.67
10.0
29.67
46.0
68.0
89.67
29.33
14.67
32.33
56.33
52.67
40.67
12.67
18.0
9.33
17.33
19.0
20.33
16.0
18.67
32.67
40.33
45.33
38.67
34.0
20.0
14.33
19.33
13.0
13.33
13.67
4.67
11.0
13.67
15.67
12.33
9.33
18.67
54.33
105.67
99.67
51.67
42.33
29.67
43.33
57.33
97.33
87.67
45.33
28.0
23.33
20.67
23.67
13.0
11.0
11.33
31.33
24.33
38.33
19.67
26.33
10.67
15.0
34.33
38.0
48.0
26.67
22.67
15.67
8.0
13.0
3.33
7.0
12.33
5.0
13.33
3.33
1.0
7.33
6.67
16.67
12.67
-6.67
5.0
20.0
4.33
12.33
15.33
9.33
14.33
2.67
1.33
18.0
7.33
17.33
11.67
3.0
9.33
23.0
9.0
10.0
12.0
12.67
25.33
-1.67
15.67
18.0
4.33
-3.0
2.33
18.0
0.0
4.67
-3.0
6.67
5.0
7.67
2.33
-0.33
11.33
0.67
8.67
-1.67
1.0
1.67
0.0
4.67
3.33
13.67
8.0
1.67
4.67
-1.33
-2.0
5.67
3.67
9.0
0.67
8.33
3.67
7.33
0.67
6.0
-0.67
3.33
1.67
1.0
7.33
-1.0
-3.0
3.33
3.67
5.33
0.33
2.67
1.33
-0.67
-1.67
-0.33
2.33
0.0
-1.67
6.0

File: 10.25.txt
0.0
-65.33
-50.33
-47.33
2.33
2.0
-1.0
2.67
-0.33
-0.33
-0.67
0.67
1.0
-1.33
0.33
-0.33
0.0
1.0
-1.0
1.33
3.33
2.67
6.33
1.33
0.33
-3.0
2.67
3.33
-1.67
9.0
4.0
11.67
7.0
5.67
3.67
2.67
5.0
6.33
4.0
-4.33
-0.33
-1.67
-3.67
-0.33
6.67
3.33
-3.0
4.67
5.67
1.33
0.67
5.33
0.33
2.67
8.67
3.0
4.0
-2.67
2.0
9.0
2.33
-3.0
-1.33
-3.33
3.33
6.67
1.33
3.0
9.33
-0.33
-0.67
4.0
5.33
1.0
4.0
-1.33
3.0
-0.33
1.67
0.0
-2.0
1.0
2.33
-2.33
1.33
1.67
2.67
-0.33
-2.0
-2.33
2.0
1.0
-0.33
0.67
1.33
-1.0
-4.33
-0.33
0.0
-1.33
-0.67
0.67
-1.0
-2.0
0.67
-0.33
-2.33
1.0
4.67
-0.67
5.0
5.67
0.0
-1.33
4.0
-0.33
10.33
7.33
13.0
-2.67
9.33
7.0
7.67
2.0
3.67
10.33
11.67
10.33
5.33
8.67
13.67
6.67
10.0
22.67
65.0
68.0
60.67
28.33
22.67
31.33
50.33
46.67
26.67
8.67
14.0
13.33
11.33
18.0
15.33
15.0
26.67
24.67
38.33
29.33
28.67
27.0
15.0
23.33
16.33
21.0
18.33
16.67
7.67
4.0
23.67
9.67
28.33
12.33
22.67
52.33
117.67
170.67
107.67
73.33
51.67
31.33
54.33
95.33
94.67
64.33
37.0
10.33
17.67
6.67
7.0
15.0
17.33
24.33
22.33
31.33
22.67
16.33
18.67
28.0
29.33
27.0
27.0
25.67
20.67
9.67
4.0
12.0
8.33
17.0
15.33
21.0
-0.67
11.33
2.0
8.33
16.67
8.67
12.67
3.33
-7.0
18.0
10.33
16.33
16.33
10.33
13.33
9.67
9.33
10.0
13.33
13.33
10.67
3.0
9.33
7.0
8.0
18.0
16.0
8.67
7.33
4.33
-2.33
10.0
6.33
5.0
0.33
9.0
6.0
1.67
-7.0
1.67
8.0
0.67
23.33
3.67
7.33
1.67
4.67
-0.67
0.0
-1.33
1.0
-1.33
7.33
2.67
8.0
7.67
3.67
4.67
0.0
6.67
4.67
-2.0
5.67
5.33
4.67
0.33
1.67
-2.0
0.33
-1.67
-4.33
2.0
6.33
2.0
8.0
0.33
2.67
5.33
1.33
6.67
7.33
-3.67
-2.67
3.67
1.33
0.0
0.33
-2.0

File: 11.0.txt
0.0
66.67
14.67
-8.33
-0.67
-1.0
-1.0
0.67
-0.33
0.67
-0.67
0.67
0.0
0.67
-0.67
0.67
0.0
0.0
2.0
5.33
2.33
-0.33
6.33
1.33
-0.67
-2.0
5.67
1.33
-1.67
2.0
-4.0
7.67
1.0
6.67
4.67
0.67
2.0
4.33
7.0
-6.33
-1.33
3.33
-3.67
2.67
9.67
11.33
4.0
1.67
3.67
0.33
4.67
2.33
-2.67
-1.33
3.67
2.0
1.0
5.33
-1.0
6.0
0.33
2.0
-1.33
5.67
4.33
2.67
2.33
0.0
8.33
0.67
2.33
2.0
9.33
0.0
-2.0
1.67
0.0
1.67
1.67
-3.0
0.0
2.0
3.33
3.67
0.33
2.67
0.67
7.67
3.0
2.67
3.0
0.0
-1.33
1.67
-1.67
3.0
-2.33
1.67
-3.0
-0.33
0.33
1.67
-3.0
8.0
2.67
0.67
3.67
-2.0
0.67
4.33
5.0
5.67
5.0
4.67
3.0
-1.33
14.33
0.33
8.0
6.33
12.33
9.0
13.67
9.0
2.67
11.33
13.67
19.33
8.33
9.67
15.67
5.67
11.0
53.67
58.0
94.0
85.67
29.33
7.67
18.33
39.33
58.67
55.67
22.67
19.0
19.33
11.33
24.0
21.33
19.0
39.67
42.67
62.33
63.33
51.67
34.0
37.0
27.33
25.33
17.0
4.33
13.67
5.67
19.0
7.67
27.67
6.33
13.33
37.67
76.33
120.67
91.67
70.67
46.33
10.67
28.33
52.33
72.33
51.67
53.33
24.0
24.33
11.67
16.67
15.0
4.0
20.33
30.33
32.33
34.33
34.67
23.33
30.67
19.0
27.33
40.0
31.0
14.67
15.67
17.67
4.0
12.0
-2.67
8.0
20.33
19.0
18.33
36.33
1.0
12.33
6.67
9.67
5.67
-7.67
11.0
12.0
5.33
8.33
24.33
9.33
1.33
-5.33
15.33
10.0
7.33
2.33
12.67
7.0
0.33
27.0
10.0
19.0
13.0
14.67
18.33
2.33
7.67
-3.0
3.33
-3.0
5.33
0.0
-3.0
7.67
-11.0
3.67
6.0
-6.33
11.33
1.67
0.33
8.67
1.67
0.33
7.0
-3.33
5.0
1.67
1.33
14.67
4.0
0.67
-1.33
-5.33
6.0
7.67
5.67
2.0
0.67
8.33
3.67
2.33
4.67
4.0
1.33
0.33
-4.33
0.0
7.33
0.0
4.0
5.33
2.67
4.33
-1.67
7.67
6.33
-3.67
-2.67
-2.33
-0.67
-2.0
7.33
2.0

File: 11.75.txt
0.0
62.67
-2.33
-40.33
-5.67
-1.0
0.0
0.67
-0.33
-0.33
-0.67
-0.33
0.0
-1.33
-1.67
0.67
1.0
1.0
1.0
5.33
-0.67
-3.33
4.33
1.33
2.33
3.0
0.67
1.33
0.33
-2.0
-4.0
6.67
-1.0
-1.33
6.67
8.67
4.0
9.33
-2.0
-8.33
3.67
10.33
4.33
-4.33
7.67
7.33
0.0
1.67
-2.33
4.33
0.67
3.33
-1.67
-3.33
5.67
2.0
-2.0
3.33
2.0
-4.0
2.33
3.0
3.67
1.67
-2.67
6.67
6.33
3.0
6.33
2.67
2.33
1.0
0.33
0.0
3.0
-0.33
-1.0
5.67
1.67
-3.0
-5.0
3.0
-0.67
0.67
0.33
-0.33
3.67
4.67
1.0
2.67
7.0
2.0
7.67
-4.33
-0.67
1.0
2.67
5.67
0.0
6.67
-0.67
0.67
2.0
2.0
2.67
3.67
-1.33
0.0
5.67
4.33
5.0
-4.33
7.0
1.67
3.0
-5.33
7.33
5.33
3.0
0.33
7.33
8.0
7.67
-3.0
4.67
-1.67
3.67
2.33
6.33
4.67
8.67
6.67
12.0
16.67
38.0
31.0
54.67
23.33
9.67
5.33
23.33
32.67
31.67
17.67
13.0
11.33
18.33
34.0
19.33
37.0
43.67
64.67
36.33
26.33
34.67
18.0
24.0
19.33
12.33
10.0
8.33
3.67
11.67
13.0
21.67
20.67
22.33
13.33
24.67
43.33
83.67
67.67
69.67
42.33
19.67
31.33
19.33
26.33
59.67
45.33
25.0
18.33
9.67
9.67
0.0
12.0
14.33
26.33
30.33
37.33
17.67
11.33
18.67
14.0
13.33
24.0
24.0
7.67
11.67
3.67
10.0
-2.0
-0.67
3.0
14.33
-3.0
-2.67
-0.67
5.0
11.33
1.67
14.67
-0.33
5.33
1.0
-4.0
2.33
3.33
6.33
5.33
2.33
-4.33
-3.67
1.0
8.33
-0.67
-1.33
9.0
17.33
8.0
17.0
-3.0
2.0
5.67
2.33
7.33
0.67
7.0
12.33
1.0
5.33
4.0
3.0
4.67
-12.0
10.67
2.0
-10.33
9.33
-3.33
11.33
7.67
5.67
1.33
4.0
1.67
6.0
3.67
-1.67
4.67
4.0
-3.33
0.67
3.67
3.0
3.67
5.67
-2.0
3.67
6.33
2.67
1.33
4.67
-3.0
3.33
1.33
1.67
-1.0
3.33
3.0
1.0
-0.67
-2.33
0.33
4.33
0.67
5.33
0.33
-2.67
-3.33
1.33
-3.0
4.33
4.0