Folder: EDX-Concrete-Analysis/EDX Back Ups and Old Files/Spectra copy 3.3.23/Samples/Low pH SF 25C 6d

Note: README.md
This is Anthony's repository for doing all sorts of Energy Dispersive X-ray Analysis on concrete samples.

File: 6.0.txt
0.0
-69.0
61.0
-9.67
-11.67
-3.0
0.67
0.0
0.0
-1.33
0.67
-0.33
-0.67
-1.0
0.67
1.0
0.33
-1.0
-1.0
1.67
4.0
1.0
5.67
2.0
7.33
5.0
0.67
3.0
11.67
8.0
-3.0
-3.0
4.67
5.0
8.33
1.0
0.67
9.0
5.67
3.0
3.67
1.67
0.67
5.0
4.67
1.67
5.33
-1.67
1.0
2.67
10.0
0.0
1.33
2.67
4.0
-0.33
1.0
2.33
-6.0
2.67
1.67
-3.0
5.67
0.33
5.67
2.33
4.33
-0.33
4.67
0.0
-3.0
6.67
-2.0
-2.33
-0.33
6.67
-0.33
3.33
5.0
4.67
4.0
-3.67
0.67
0.67
2.33
0.67
1.33
3.0
0.33
-1.33
-4.33
-2.0
6.0
-3.33
-1.67
-1.33
-6.0
-1.67
-6.0
-2.33
0.67
-2.33
4.0
1.67
-2.33
1.33
-1.0
1.67
-0.33
1.67
0.33
2.0
-4.0
-3.67
-7.0
1.0
-3.67
-3.33
-9.33
-1.67
-7.33
2.33
2.33
-5.67
3.67
-6.33
-4.33
0.67
-8.67
-5.33
-7.33
-3.33
3.0
13.33
5.33
11.33
11.0
2.33
5.67
2.67
7.0
28.0
28.0
9.67
-2.33
4.0
16.0
5.33
1.0
4.0
8.67
15.67
10.0
19.33
12.67
9.67
31.33
13.33
14.0
9.0
-2.33
-1.67
7.0
20.33
27.67
10.67
15.33
14.33
17.33
24.33
70.67
85.33
43.67
12.0
18.0
12.0
15.67
22.67
31.67
30.33
17.67
8.33
19.0
10.0
10.33
13.67
9.0
13.33
18.33
20.67
15.67
44.33
30.0
13.67
25.67
19.0
17.33
4.33
4.33
3.0
13.67
13.33
8.0
10.0
1.67
6.33
18.0
5.33
16.0
12.0
5.67
1.0
7.33
12.33
4.67
11.33
10.33
17.0
14.33
8.67
-0.33
20.33
3.33
-2.0
15.0
8.67
8.33
-4.0
25.0
15.67
1.67
3.67
-1.33
1.67
6.33
7.33
3.0
-8.33
11.33
-2.67
-3.67
6.67
8.67
-4.0
12.33
8.33
-4.33
-1.0
17.33
-0.67
-1.67
10.0
9.67
2.67
-3.67
5.0
6.67
9.0
-5.33
4.0
3.33
4.33
-6.67
8.67
-5.33
5.67
-4.67
-8.67
8.33
9.67
3.0
5.67
2.33
4.0
6.0
-4.67
-3.33
9.67
1.33
-1.33
9.67
6.0
2.67
3.33
6.0
-2.67
0.67
-1.0
1.67
5.0
0.67
-4.33
1.0
0.33

File: 6.5.txt
0.0
-19.0
2.0
-3.67
2.33
1.0
-0.33
1.0
0.0
-1.33
1.67
-1.33
2.33
0.0
2.67
0.0
2.33
-1.0
-5.0
4.67
7.0
1.0
0.67
5.0
-0.67
9.0
-5.33
7.0
8.67
7.0
-4.0
0.0
2.67
9.0
3.33
2.0
5.67
15.0
-0.33
0.0
7.67
-0.33
2.67
4.0
0.67
6.67
3.33
-0.67
6.0
-2.33
5.0
-1.0
2.33
4.67
0.0
2.67
6.0
8.33
-2.0
2.67
6.67
-2.0
6.67
-1.67
3.67
4.33
2.33
-1.33
4.67
-2.0
3.0
1.67
-2.0
-2.33
-0.33
-0.33
-1.33
1.33
3.0
-1.33
2.0
2.33
-0.33
1.67
-2.67
-1.33
-0.67
-1.0
2.33
-5.33
1.67
0.0
-3.0
-3.33
-3.67
3.67
-1.0
-3.67
-6.0
-4.33
-2.33
-0.33
-2.0
1.67
-3.33
-0.67
-6.0
-2.33
-6.33
-2.33
1.33
0.0
-4.0
5.33
-9.0
3.0
-4.67
-4.33
-3.33
-5.67
-4.33
6.33
-1.67
-4.67
0.67
-1.33
-4.33
0.67
5.33
-3.33
1.67
1.67
5.0
8.33
6.33
3.33
3.0
0.33
5.67
0.67
8.0
16.0
8.0
1.67
-4.33
-1.0
4.0
-1.67
5.0
13.0
10.67
7.67
13.0
10.33
1.67
3.67
12.33
14.33
4.0
10.0
7.67
0.33
9.0
14.33
22.67
30.67
3.33
10.33
12.33
42.33
38.67
86.33
40.67
18.0
21.0
30.0
35.67
32.67
38.67
39.33
34.67
22.33
2.0
22.0
2.33
8.67
10.0
5.33
19.33
21.67
17.67
17.33
11.0
-1.33
7.67
14.0
11.33
23.33
17.33
6.0
0.67
16.33
10.0
8.0
7.67
9.33
7.0
1.33
8.0
-1.0
4.67
12.0
12.33
8.33
7.67
12.33
9.33
5.0
-2.67
3.67
7.67
10.33
11.33
11.0
25.0
17.67
19.33
-5.0
2.0
12.67
3.67
-0.33
10.67
8.67
10.33
20.33
3.0
8.67
6.33
7.33
13.33
12.67
-1.33
-7.0
-1.67
4.33
-4.33
11.0
-6.67
9.33
4.33
15.0
9.67
4.67
3.33
12.0
1.67
10.0
7.67
-1.0
-0.67
7.33
-0.67
-4.33
-8.33
12.67
-1.67
3.33
8.33
9.67
0.0
3.67
-3.67
-2.0
-1.0
-3.67
5.67
1.67
5.33
2.67
1.67
8.0
2.67
3.33
1.0
-0.67
3.67
5.0
1.67
3.0
0.67
2.67
5.0
3.33

File: 7.75.txt
0.0
-74.0
0.0
24.33
-4.67
0.0
-0.33
3.0
2.0
-0.33
0.67
-0.33
0.33
0.0
0.67
-2.0
3.33
-1.0
-3.0
3.67
0.0
2.0
-1.33
5.0
4.33
2.0
-0.33
5.0
4.67
8.0
-1.0
-2.0
7.67
-3.0
4.33
5.0
7.67
11.0
2.67
5.0
1.67
3.67
1.67
0.0
4.67
5.67
7.33
4.33
4.0
-0.33
6.0
4.0
2.33
4.67
1.0
9.67
2.0
3.33
-3.0
-0.33
6.67
1.0
8.67
0.33
-1.33
4.33
-2.67
2.67
1.67
2.0
-3.0
2.67
0.0
-3.33
-0.33
-2.33
-3.33
0.33
3.0
2.67
1.0
-2.67
-4.33
2.67
1.33
-2.33
-0.67
2.0
-3.67
-2.33
2.67
-2.0
-5.0
0.67
-3.67
-1.33
-3.0
-1.67
-3.0
-2.33
4.67
-5.33
-1.0
1.67
-5.33
5.33
4.0
0.67
-3.33
-1.33
1.33
-3.0
-10.0
-0.67
-4.0
-3.0
3.33
-7.33
-6.33
-13.67
-2.33
-1.67
1.33
-1.67
-9.33
3.67
-0.33
2.67
0.33
6.67
-1.33
-8.33
1.0
11.33
32.33
9.33
-3.0
1.33
1.67
3.67
7.0
20.0
9.0
11.67
-1.33
6.0
10.0
4.33
11.0
12.0
15.67
34.67
30.0
19.33
17.67
6.67
21.33
26.33
6.0
5.0
4.67
10.33
12.0
17.33
25.67
6.67
3.33
14.33
39.33
107.33
278.67
439.33
176.67
49.0
18.0
28.0
22.67
29.67
30.67
37.33
32.67
23.33
21.0
8.0
8.33
4.67
4.0
17.33
18.33
29.67
29.67
41.33
10.0
24.67
20.67
26.0
33.33
25.33
18.33
-4.0
11.67
6.33
21.0
8.0
17.67
9.33
12.0
-4.67
10.0
17.0
17.67
14.0
0.33
23.33
18.67
5.33
7.33
6.0
6.33
12.67
7.67
6.33
15.33
5.0
15.0
16.67
19.33
14.0
11.0
7.67
16.67
6.67
11.67
1.67
7.33
3.33
13.0
1.67
6.33
7.33
0.33
1.67
-0.33
5.0
4.33
-3.67
2.67
7.0
-0.67
5.33
2.33
11.0
3.67
-3.33
-2.67
5.0
-2.33
0.0
-6.33
3.0
5.33
3.33
-4.67
-2.33
-5.33
5.67
-3.67
7.33
6.33
11.67
7.0
-0.33
0.33
3.0
3.0
-0.67
1.67
0.67
9.33
1.67
3.67
-1.0
1.67
1.33
1.0
3.33
-2.33
2.0
1.67
0.0
-0.33
-0.33
0.0
1.33

File: 9.0.txt
0.0
-22.0
-29.0
10.33
8.33
0.0
0.67
0.0
2.0
-0.33
-0.33
0.67
-0.67
1.0
0.67
-1.0
0.33
-1.0
-2.0
3.67
5.0
3.0
4.67
8.0
8.33
0.0
1.67
3.0
8.67
6.0
-1.0
-2.0
-0.33
9.0
3.33
2.0
4.67
10.0
-1.33
3.0
3.67
-2.33
1.67
2.0
3.67
3.67
4.33
-2.67
3.0
4.67
4.0
5.0
0.33
5.67
6.0
4.67
-4.0
-2.67
-4.0
4.67
7.67
-2.0
2.67
-2.67
2.67
-1.67
-0.67
2.67
1.67
0.0
-5.0
-1.33
-1.0
-1.33
2.67
0.67
-0.33
-1.67
3.0
-0.33
4.0
-5.67
2.67
-2.33
0.33
-2.33
5.33
-2.0
-0.67
2.67
-0.33
-2.0
2.0
-3.33
-3.67
4.67
-3.0
0.33
0.0
-4.33
0.67
-1.33
-4.0
-3.33
-0.33
-2.67
-2.0
0.67
-2.33
-0.33
4.33
-3.0
-1.0
3.33
-6.0
2.0
-2.67
-10.33
-6.33
-4.67
-0.33
-4.67
-7.67
-6.67
-1.33
-1.33
-5.33
8.67
6.33
8.67
-9.33
-3.33
-1.0
12.33
58.33
38.33
9.0
-1.67
7.67
6.67
16.0
39.0
37.0
19.67
4.67
4.0
3.0
11.33
19.0
18.0
25.67
23.67
20.0
25.33
12.67
10.67
18.33
15.33
16.0
10.0
16.67
1.33
6.0
22.33
20.67
11.67
13.33
21.33
21.33
53.33
123.67
291.33
238.67
83.0
25.0
23.0
20.67
39.67
35.67
27.33
21.67
13.33
10.0
17.0
17.33
11.67
8.0
29.33
26.33
48.67
18.67
23.33
19.0
10.67
15.67
26.0
11.33
16.33
5.33
14.0
-5.33
8.33
11.0
8.0
12.67
9.33
17.0
5.33
9.0
-6.0
7.67
12.0
3.33
6.33
14.67
12.33
14.33
10.0
14.33
4.67
3.67
0.33
7.33
-1.0
4.0
-1.33
14.33
1.0
2.0
7.67
3.67
5.67
-12.33
9.67
-1.67
19.33
10.0
3.67
4.33
1.33
-7.67
2.67
-5.33
-3.0
4.33
-4.67
4.67
-1.0
-5.67
-4.67
7.33
2.0
7.67
2.67
-6.67
1.0
-2.33
-1.0
-6.33
-2.0
2.33
7.33
1.33
-5.33
3.67
2.67
-2.67
1.33
1.33
2.67
9.0
1.67
-6.67
4.0
-2.0
-1.67
-2.33
-3.33
0.33
-3.33
3.67
2.0
11.67
0.33
-6.0
2.33
-0.33
5.0
-1.33
4.0
-2.33
-1.33
5.0
4.33

File: 10.0.txt
0.0
29.0
24.0
15.33
-0.67
-3.0
-0.33
1.0
1.0
-1.33
0.67
-0.33
-0.67
0.0
1.67
-2.0
2.33
-2.0
-2.0
0.67
-2.0
3.0
1.67
3.0
1.33
8.0
-1.33
7.0
4.67
4.0
-3.0
1.0
4.67
5.0
0.33
-1.0
-0.33
3.0
-0.33
3.0
4.67
0.67
8.67
-2.0
8.67
7.67
0.33
-1.67
3.0
4.67
2.0
0.0
-1.67
2.67
-1.0
1.67
5.0
3.33
3.0
-0.33
-0.33
-3.0
4.67
-0.67
0.67
5.33
4.33
-0.33
3.67
-1.0
-2.0
-2.33
-5.0
-3.33
-1.33
2.67
-5.33
-1.67
-5.0
0.67
2.0
0.33
-0.33
-5.33
-0.67
2.67
-2.67
3.0
-2.67
-3.33
-0.33
1.0
0.0
-3.33
-2.67
-0.33
-3.0
0.33
-3.0
1.67
-3.33
-6.33
-1.0
4.67
0.67
-4.67
-7.0
1.67
-2.33
-1.33
3.33
-3.0
4.0
-1.67
0.0
9.0
0.33
-10.33
1.67
-7.67
-1.33
-0.67
-2.67
-4.67
-3.33
-2.33
-1.33
3.67
2.33
-1.33
-2.33
5.67
6.0
11.33
38.33
54.33
18.0
7.33
2.67
2.67
11.0
28.0
28.0
9.67
3.67
6.0
17.0
21.33
5.0
14.0
31.67
40.67
56.0
80.33
56.67
23.67
35.33
17.33
8.0
9.0
7.67
3.33
4.0
17.33
39.67
33.67
13.33
13.33
51.33
118.33
116.67
91.33
84.67
33.0
17.0
23.0
21.67
25.67
39.67
46.33
32.67
27.33
14.0
9.0
8.33
3.67
6.0
16.33
30.33
28.67
18.67
41.33
9.0
16.67
12.67
15.0
18.33
16.33
7.33
2.0
-1.33
-1.67
4.0
4.0
17.67
16.33
5.0
15.33
6.0
19.0
4.67
5.0
1.33
4.33
7.67
-4.67
6.33
10.0
18.33
15.67
13.67
13.33
-2.67
1.0
1.0
2.67
4.33
-2.0
9.0
22.67
-1.33
-4.33
8.67
8.67
5.33
5.33
4.0
4.67
0.33
6.33
7.33
11.67
2.67
-4.0
-6.67
12.33
8.67
1.0
0.33
-1.67
1.33
2.0
3.67
-5.33
-0.67
4.0
3.67
4.0
-7.33
-2.0
3.33
4.33
-0.67
-0.33
5.67
4.67
-8.67
-5.67
1.33
2.67
0.0
-1.33
6.33
-3.0
3.0
2.33
-5.33
-0.33
5.33
-3.33
4.67
3.0
-2.33
-3.67
-1.0
0.33
-3.33
3.0
-6.33
7.0
-2.33
-2.33
-4.0
4.33

File: 10.25.txt
0.0
-6.0
-46.0
5.33
-14.67
-3.0
-0.33
0.0
0.0
-0.33
-0.33
-0.33
-0.67
0.0
0.67
-1.0
-0.67
1.0
-2.0
-3.33
10.0
1.0
5.67
-3.0
9.33
9.0
1.67
-1.0
6.67
7.0
1.0
-4.0
2.67
7.0
5.33
5.0
4.67
3.0
-0.33
6.0
0.67
3.67
4.67
0.0
5.67
0.67
8.33
-2.67
3.0
3.67
2.0
1.0
1.33
2.67
-3.0
2.67
1.0
2.33
0.0
2.67
4.67
1.0
-1.33
-6.67
3.67
-0.67
0.33
1.67
0.67
2.0
-3.0
-0.33
2.0
-2.33
-2.33
-1.33
-4.33
6.33
1.0
3.67
5.0
-1.67
-1.33
-1.33
-0.67
0.67
-2.67
-3.0
-4.67
-4.33
-3.33
-5.0
-3.0
2.67
-3.67
-2.33
1.0
-4.67
-6.0
0.67
-2.33
-3.33
0.0
-1.33
-5.33
9.33
-3.0
-1.33
-5.33
5.67
-0.67
1.0
-8.0
-3.67
-6.0
4.0
-3.67
-10.33
-4.33
-7.67
-1.33
1.33
-1.67
-5.67
-0.33
0.67
2.67
-3.33
-4.67
-2.33
-1.33
5.67
3.0
24.33
20.33
15.33
5.0
-4.67
0.67
2.67
12.0
26.0
27.0
15.67
0.67
21.0
19.0
27.33
14.0
7.0
18.67
31.67
51.0
82.33
49.67
25.67
35.33
17.33
15.0
7.0
17.67
2.33
12.0
20.33
19.67
15.67
13.33
8.33
25.33
52.33
179.67
237.33
109.67
27.0
31.0
32.0
41.67
43.67
50.67
41.33
49.67
30.33
12.0
3.0
7.33
3.67
11.0
25.33
26.33
40.67
33.67
27.33
25.0
20.67
34.67
15.0
15.33
32.33
22.33
12.0
2.67
1.33
16.0
12.0
4.67
13.33
14.0
4.33
0.0
-1.0
10.67
11.0
5.33
-0.67
12.67
5.33
13.33
20.0
27.33
15.67
11.67
8.33
-0.67
7.0
6.0
19.67
6.33
8.0
6.0
17.67
11.67
-1.33
4.67
13.67
-6.67
18.33
0.0
-1.33
12.33
0.33
1.33
1.67
-0.33
-4.0
1.33
3.33
4.67
3.0
11.33
2.33
3.33
3.0
14.67
-2.33
5.33
-3.0
2.67
5.0
-4.33
6.0
1.33
3.33
6.33
0.67
-0.33
3.67
8.33
-4.67
1.33
5.67
4.0
4.67
-3.67
-1.0
6.0
3.33
-5.33
14.67
4.33
-0.33
5.67
0.0
-0.33
0.33
-1.0
3.33
3.67
4.0
7.67
4.0
-1.33
-2.33
1.0
3.33

File: 11.0.txt
0.0
-24.0
65.0
-17.67
-9.67
-4.0
-0.33
1.0
0.0
-0.33
-0.33
-1.33
0.33
-1.0
0.67
0.0
2.33
0.0
-1.0
1.67
8.0
-1.0
2.67
9.0
-0.67
3.0
-2.33
7.0
5.67
15.0
0.0
-4.0
3.67
3.0
2.33
1.0
8.67
1.0
-0.33
8.0
-3.33
1.67
2.67
-3.0
3.67
11.67
1.33
4.33
2.0
-2.33
2.0
2.0
-0.67
2.67
5.0
-1.33
-2.0
0.33
1.0
-1.33
-1.33
-1.0
0.67
2.33
4.67
2.33
0.33
-0.33
-0.33
3.0
-2.0
-2.33
-1.0
0.67
-1.33
1.67
-0.33
-0.67
3.0
4.67
1.0
0.33
-4.33
1.67
3.33
-2.33
-1.67
1.0
-0.67
-2.33
-4.33
0.0
1.0
-0.33
-3.67
-0.33
-3.0
-5.67
-4.0
-5.33
-4.33
-6.33
-2.0
-1.33
0.67
2.33
-3.0
-0.33
-4.33
3.67
6.33
-5.0
-3.0
3.33
-8.0
2.0
1.33
-3.33
-5.33
-6.67
-4.33
7.33
3.33
-7.67
0.67
6.67
0.67
2.67
-2.67
3.67
-3.33
-3.33
8.0
33.33
54.33
30.33
19.0
-1.67
8.67
15.67
12.0
14.0
9.0
18.67
-0.33
10.0
4.0
23.33
25.0
35.0
45.67
48.67
33.0
36.33
34.67
15.67
24.33
30.33
16.0
7.0
13.67
4.33
7.0
13.33
52.67
47.67
23.33
28.33
35.33
134.33
162.67
208.33
130.67
65.0
34.0
30.0
54.67
70.67
61.67
62.33
38.67
25.33
16.0
9.0
8.33
7.67
10.0
20.33
22.33
30.67
33.67
57.33
38.0
28.67
16.67
20.0
11.33
5.33
19.33
2.0
7.67
12.33
3.0
8.0
2.67
15.33
9.0
15.33
17.0
2.0
0.67
3.0
2.33
9.33
10.67
1.33
4.33
25.0
10.33
6.67
20.67
13.33
7.33
1.0
-1.0
17.67
1.33
0.0
-1.0
15.67
-0.33
14.67
12.67
1.67
0.33
9.33
-7.0
-3.33
16.33
6.33
-1.67
0.67
2.67
3.0
-1.67
0.33
-1.33
10.0
3.33
-1.67
5.33
8.0
11.67
-4.33
0.33
5.0
8.67
5.0
-6.33
-5.0
7.33
5.33
-4.67
0.67
-2.33
0.67
-1.67
4.33
6.33
5.67
6.0
5.67
-2.67
0.0
7.0
-2.67
-1.33
0.67
1.33
3.67
5.67
4.0
0.67
1.33
3.0
-0.67
1.67
4.0
1.67
2.0
-5.33
-2.33
3.0
1.33

File: 11.5.txt
0.0
0.0
18.0
-14.67
5.33
-2.0
-0.33
0.0
0.0
-0.33
-0.33
-1.33
-0.67
1.0
0.67
-1.0
0.33
-1.0
-3.0
1.67
1.0
-2.0
1.67
3.0
2.33
-1.0
1.67
-3.0
3.67
1.0
-5.0
-2.0
8.67
1.0
4.33
-5.0
4.67
5.0
-3.33
3.0
4.67
2.67
0.67
6.0
0.67
1.67
5.33
-1.67
4.0
2.67
7.0
-1.0
-0.67
2.67
8.0
-0.33
-1.0
8.33
0.0
6.67
-0.33
-3.0
-1.33
-2.67
1.67
-2.67
1.33
-2.33
-0.33
-2.0
-5.0
4.67
0.0
-5.33
-2.33
1.67
-4.33
-1.67
2.0
-1.33
5.0
1.33
-5.33
-1.33
-2.67
-3.33
1.33
0.0
-1.67
-1.33
-1.33
-1.0
-5.0
-0.33
-2.67
2.67
-2.0
-1.67
-4.0
0.67
-4.33
-2.33
6.0
-4.33
-1.33
-0.67
-5.0
-0.33
-0.33
6.67
-0.67
-1.0
-7.0
-2.67
-5.0
2.0
-1.67
-3.33
-4.33
-7.67
-8.33
-1.67
-2.67
-5.67
-5.33
0.67
-2.33
3.67
2.33
4.67
1.67
-4.33
3.0
56.33
90.33
57.33
7.0
0.33
2.67
1.67
3.0
9.0
10.0
10.67
0.67
-3.0
19.0
22.33
62.0
63.0
93.67
79.67
44.0
48.33
66.67
37.67
37.33
22.33
12.0
7.0
8.67
6.33
3.0
9.33
30.67
6.67
12.33
13.33
55.33
206.33
247.67
96.33
62.67
34.0
38.0
31.0
31.67
30.67
46.67
33.33
41.67
32.33
12.0
13.0
5.33
10.67
6.0
21.33
23.33
35.67
34.67
40.33
24.0
26.67
27.67
14.0
13.33
13.33
6.33
-1.0
12.67
9.33
9.0
14.0
6.67
9.33
6.0
4.33
-1.0
2.0
23.67
-1.0
-6.67
7.33
3.67
5.33
6.33
8.0
13.33
11.67
3.67
14.33
6.33
-3.0
13.0
12.67
7.33
-2.0
9.0
12.67
13.67
-7.33
1.67
-5.33
16.33
6.33
-3.0
-7.33
25.33
10.33
1.33
7.67
-1.33
-5.0
6.33
-0.67
2.67
-4.0
-6.67
1.33
-1.67
10.0
9.67
1.67
1.33
0.0
2.67
-4.0
-3.33
0.0
5.33
10.33
-2.67
0.67
-0.33
-2.33
-5.67
-2.67
6.33
3.67
6.0
-1.33
6.33
4.0
-1.0
-2.67
2.67
-1.33
0.33
-5.33
2.67
1.0
0.67
6.33
-5.0
-2.67
1.67
8.0
-4.33
1.0
-3.33
0.67
1.0
3.33

File: 11.25.txt
0.0
-30.0
-44.0
23.33
-12.67
-5.0
0.67
0.0
1.0
-1.33
-0.33
-1.33
-0.67
0.0
1.67
0.0
0.33
2.0
-6.0
1.67
3.0
-2.0
-3.33
6.0
4.33
1.0
-1.33
3.0
7.67
6.0
-4.0
3.0
11.67
6.0
3.33
5.0
6.67
5.0
2.67
5.0
-0.33
0.67
0.67
-1.0
4.67
2.67
6.33
0.33
3.0
-1.33
3.0
9.0
1.33
2.67
1.0
-1.33
0.0
0.33
-6.0
-3.33
5.67
5.0
0.67
-5.67
2.67
2.33
3.33
-0.33
3.67
0.0
-1.0
-3.33
9.0
-5.33
0.67
3.67
-3.33
4.33
3.0
3.67
-2.0
-1.67
-0.33
2.67
4.33
-4.33
3.33
0.0
2.33
-6.33
-4.33
-3.0
-1.0
1.67
-4.67
-1.33
-2.0
-2.67
4.0
-5.33
2.67
1.67
1.0
-4.33
-4.33
-0.67
0.0
-1.33
-6.33
4.67
-0.67
-5.0
-2.0
-1.67
2.0
-2.0
-3.67
-6.33
-0.33
-10.67
-4.33
2.33
0.33
4.33
-3.33
1.67
5.67
8.67
-2.67
7.67
-4.33
-0.33
10.0
38.33
31.33
8.33
7.0
-4.67
14.67
3.67
9.0
15.0
13.0
4.67
-1.33
2.0
11.0
21.33
28.0
65.0
51.67
39.67
46.0
48.33
48.67
24.67
25.33
13.33
11.0
13.0
13.67
11.33
12.0
11.33
30.67
31.67
27.33
12.33
64.33
154.33
257.67
176.33
108.67
56.0
44.0
31.0
45.67
85.67
56.67
56.33
29.67
23.33
13.0
10.0
7.33
0.67
13.0
26.33
33.33
33.67
36.67
69.33
34.0
24.67
19.67
13.0
20.33
18.33
9.33
3.0
1.67
3.33
14.0
-8.0
15.67
9.33
7.0
2.33
6.0
12.0
12.67
6.0
4.33
5.33
-4.33
-2.67
11.33
12.0
14.33
11.67
6.67
13.33
15.33
15.0
12.0
9.67
7.33
-3.0
7.0
2.67
20.67
7.67
7.67
-2.33
0.33
10.33
5.0
-0.33
9.33
15.33
-2.67
7.67
1.67
6.0
-0.67
7.33
-0.33
-1.0
16.33
2.33
-10.67
9.0
-4.33
1.67
-1.67
-6.0
1.67
3.0
-5.33
-1.0
5.33
-6.67
-5.67
0.67
0.67
3.67
-2.67
5.33
5.33
5.67
4.0
1.67
-6.67
4.0
-3.0
-4.67
-0.33
2.67
6.33
-5.33
0.67
5.0
1.67
-0.67
1.0
2.33
5.67
1.0
-0.33
2.0
-2.33
1.67
0.0
-0.67