Folder: EDX-Concrete-Analysis/EDX Back Ups and Old Files/Spectra copy 3.3.23/Samples/Low pH SF 25C 4d

Note: README.md
This is Anthony's repository for doing all sorts of Energy Dispersive X-ray Analysis on concrete samples.

File: 6.5.txt
0.0
-56.0
-53.0
-1.33
-10.0
0.67
-0.33
-0.33
-0.33
-0.67
0.0
-0.33
-0.33
-2.33
-0.67
-1.0
1.67
-0.33
-1.0
-0.67
11.67
0.67
4.0
9.67
1.0
-3.0
8.67
6.33
12.33
1.0
2.67
7.0
3.67
5.67
3.0
1.0
11.33
7.33
3.0
1.67
-1.0
10.0
10.67
0.67
4.0
-1.67
-1.67
-1.0
-0.33
5.67
9.33
4.0
4.67
5.0
2.0
3.33
7.67
-1.33
-1.67
1.67
1.67
-1.67
3.33
0.67
3.33
6.33
1.67
0.0
3.67
1.33
4.33
-0.67
6.33
4.67
-2.0
-0.67
4.67
-3.33
4.33
0.0
3.67
0.67
1.0
1.67
-2.0
2.0
8.33
5.0
0.0
4.33
2.0
0.33
1.0
-6.0
1.33
9.0
1.67
-1.33
0.67
2.0
0.33
0.33
3.0
-0.67
-0.33
-1.0
2.0
3.0
-2.0
-4.33
0.0
-0.67
-2.0
-0.33
1.0
0.67
2.33
4.0
-1.33
6.33
1.67
2.0
4.67
1.33
2.67
11.33
6.33
6.33
12.67
10.0
3.33
9.0
0.67
2.67
21.0
4.67
8.0
3.33
11.33
9.67
16.67
25.33
21.33
17.67
23.67
28.33
16.67
17.67
23.33
28.67
28.0
32.67
33.33
16.33
16.0
21.67
16.67
19.0
10.67
4.0
8.67
6.67
7.33
21.0
15.0
21.0
16.67
20.33
29.33
60.33
122.33
115.67
62.0
51.0
39.67
21.33
44.0
60.67
58.0
36.33
43.33
2.67
11.0
10.33
3.0
3.0
8.0
16.67
20.0
16.0
29.0
22.0
22.0
20.33
12.0
14.33
19.67
7.67
8.67
-1.0
12.67
10.0
10.33
-4.33
15.67
27.0
10.67
4.33
17.33
6.67
-3.33
21.33
-7.33
0.67
4.0
13.33
17.67
3.67
8.0
18.33
12.67
13.0
15.0
13.33
20.67
1.67
11.33
14.0
13.0
2.33
12.67
14.67
7.33
7.67
5.33
-4.33
10.0
17.0
8.33
11.67
1.67
10.33
1.0
9.67
-2.0
1.67
4.33
0.67
1.33
5.33
11.67
10.33
8.33
7.0
6.33
10.67
-2.67
11.0
1.33
17.67
-4.67
-2.0
8.0
3.67
-4.67
-3.0
2.67
2.67
9.33
-0.67
7.67
-1.67
2.0
13.33
1.33
6.67
-1.67
9.67
2.33
6.33
2.67
5.0
2.67
0.67
2.0
0.67
-2.0
-1.0
2.0
1.0
-1.67
-6.33
3.0
3.33

File: 7.25.txt
0.0
-38.0
-38.0
-15.33
-6.0
3.67
-0.33
0.67
0.67
-0.67
3.0
-0.33
1.67
-2.33
-0.67
0.0
4.67
-2.33
-2.0
1.33
4.67
0.67
4.0
6.67
-2.0
6.0
4.67
3.33
2.33
0.0
-2.33
6.0
1.67
2.67
2.0
1.0
0.33
-0.67
3.0
1.67
-3.0
3.0
0.67
2.67
1.0
9.33
-0.67
0.0
-1.33
-2.33
2.33
2.0
3.67
7.0
1.0
7.33
-0.33
-0.33
-0.67
5.67
3.67
0.33
6.33
2.67
-1.67
7.33
-3.33
9.0
3.67
0.33
1.33
-1.67
1.33
7.67
1.0
1.33
4.67
0.67
2.33
-2.0
2.67
0.67
7.0
4.67
1.0
2.0
-1.67
3.0
-2.0
4.33
5.0
5.33
-1.0
1.0
4.33
0.0
1.67
2.67
0.67
1.0
1.33
0.33
4.0
3.33
-0.33
0.0
10.0
7.0
-1.0
3.67
-6.0
-1.67
2.0
0.67
3.0
3.67
-2.67
4.0
-1.33
2.33
0.67
-1.0
7.67
4.33
9.67
6.33
1.33
7.33
4.67
5.0
-0.67
9.0
11.67
25.67
43.0
32.67
16.0
11.33
11.33
8.67
7.67
18.33
25.33
9.67
14.67
10.33
17.67
28.67
13.33
14.67
19.0
16.67
36.33
19.33
26.0
23.67
18.67
23.0
9.67
6.0
9.67
3.67
11.33
21.0
15.0
4.0
15.67
6.33
7.33
33.33
86.33
151.67
164.0
110.0
30.67
17.33
23.0
28.67
30.0
34.33
24.33
23.67
18.0
8.33
10.0
12.0
7.0
5.67
26.0
5.0
21.0
9.0
14.0
24.33
21.0
3.33
18.67
16.67
8.67
6.0
14.67
11.0
13.33
2.67
6.67
8.0
10.67
10.33
12.33
1.67
11.67
8.33
3.67
-0.33
2.0
25.33
17.67
-0.33
4.0
4.33
11.67
20.0
4.0
17.33
12.67
11.67
7.33
11.0
17.0
7.33
14.67
9.67
7.33
14.67
6.33
9.67
14.0
-3.0
-0.67
6.67
7.67
11.33
4.0
10.67
-3.0
6.67
2.33
-8.33
10.33
-0.67
7.67
14.33
3.33
10.0
0.33
9.67
10.33
2.0
-5.67
2.67
-3.67
5.0
7.0
15.67
-0.67
-1.0
2.67
-4.33
-1.67
4.33
6.67
-0.67
-1.0
2.33
1.33
-3.33
2.33
2.67
5.33
-4.67
-5.33
4.0
11.67
7.67
-1.0
0.67
1.0
7.0
3.0
-2.0
0.33
-3.33
6.0
6.33

File: 7.75.txt
0.0
-38.0
7.0
3.67
-1.0
0.67
-0.33
-0.33
-0.33
-0.67
0.0
0.67
-0.33
-0.33
0.33
1.0
2.67
1.67
-1.0
1.33
7.67
2.67
-1.0
5.67
4.0
4.0
0.67
12.33
7.33
5.0
-6.33
1.0
4.67
2.67
-1.0
2.0
1.33
-0.67
2.0
-2.33
0.0
0.0
0.67
-4.33
-2.0
-0.67
0.33
4.0
5.67
3.67
5.33
0.0
4.67
-2.0
1.0
7.33
2.67
2.67
9.33
4.67
6.67
12.33
9.33
1.67
-4.67
-0.67
-2.33
2.0
-1.33
1.33
3.33
-3.67
7.33
2.67
2.0
2.33
0.67
-1.33
-0.67
0.0
-3.33
-1.33
2.0
-0.33
1.0
-1.0
1.33
0.0
-1.0
4.33
4.0
1.33
0.0
1.0
1.33
-1.0
-1.33
2.67
4.67
5.0
-1.67
-2.67
4.0
-3.67
3.67
-2.0
4.0
4.0
0.0
2.67
0.0
-1.67
7.0
4.67
-3.0
2.67
-2.67
-2.0
2.67
8.33
8.67
5.0
11.67
4.33
7.67
3.33
0.33
4.33
1.67
2.0
7.33
7.0
1.67
18.67
30.0
33.67
19.0
12.33
11.33
7.67
11.67
33.33
26.33
11.67
23.67
30.33
18.67
25.67
18.33
6.67
26.0
19.67
20.33
22.33
10.0
25.67
10.67
18.0
13.67
17.0
8.67
8.67
18.33
13.0
7.0
17.0
14.67
11.33
25.33
87.33
200.33
195.67
101.0
28.0
14.67
23.33
23.0
33.67
51.0
43.33
37.33
22.67
14.0
9.33
16.0
2.0
12.0
14.67
16.0
27.0
25.0
17.0
16.0
-3.67
17.0
26.33
4.67
1.67
12.67
2.0
8.67
1.0
11.33
14.67
16.67
10.0
10.67
6.33
16.33
2.67
11.67
6.33
9.67
7.67
12.0
-2.67
10.67
3.67
17.0
12.33
12.67
14.0
14.0
6.33
8.67
11.67
1.33
17.0
25.0
12.33
-3.33
15.67
15.33
14.67
3.33
3.67
-1.0
2.0
9.33
4.67
6.67
3.33
1.0
1.67
-12.0
-0.33
8.33
0.67
7.33
-4.67
9.67
0.33
-2.67
9.0
-0.67
4.67
1.33
5.0
-3.67
9.67
-4.67
3.0
5.0
1.67
1.33
-2.0
2.67
11.67
-2.67
1.33
7.67
1.33
-6.0
8.33
-1.67
4.67
1.33
-0.33
4.33
3.33
-0.33
5.0
1.67
6.67
-5.0
1.67
1.0
5.0
0.0
0.0
3.33
3.67
3.0
-2.67

File: 9.5.txt
0.0
-89.0
5.0
23.67
-12.0
2.67
-0.33
-0.33
0.67
0.33
0.0
-0.33
0.67
1.67
-1.67
0.0
0.67
-1.33
2.0
1.33
9.67
1.67
0.0
0.67
-5.0
3.0
4.67
10.33
2.33
2.0
1.67
1.0
-3.33
7.67
3.0
2.0
10.33
2.33
7.0
5.67
0.0
1.0
4.67
2.67
-5.0
-0.67
1.33
-2.0
0.67
-1.33
2.33
3.0
-1.33
-2.0
6.0
8.33
-0.33
1.67
3.33
2.67
1.67
1.33
5.33
-0.33
3.33
1.33
-3.33
3.0
0.67
-1.67
0.33
-3.67
5.33
-2.33
-3.0
3.33
4.67
-2.33
-1.67
1.0
3.67
-0.33
2.0
1.67
-1.0
4.0
2.33
3.0
-2.0
0.33
4.0
2.33
2.0
-4.0
2.33
0.0
1.67
-0.33
-0.33
1.0
0.33
2.33
-4.0
-1.67
-2.33
2.0
7.0
1.0
0.0
3.67
-3.0
-2.67
5.0
2.67
5.0
6.67
7.33
12.0
-1.33
8.33
8.67
3.0
15.67
5.33
3.67
10.33
9.33
14.33
8.67
8.0
10.33
3.0
7.67
17.67
17.0
14.67
13.0
13.33
10.33
15.67
18.67
26.33
16.33
10.67
8.67
16.33
22.67
25.67
19.33
15.67
11.0
30.67
37.33
41.33
31.0
19.67
25.67
13.0
16.67
14.0
13.67
18.67
12.33
18.0
34.0
28.0
15.67
13.33
35.33
98.33
159.33
153.67
73.0
20.0
32.67
35.33
48.0
33.67
42.0
25.33
41.33
14.67
14.0
13.33
18.0
2.0
16.0
19.67
20.0
29.0
20.0
27.0
10.0
24.33
9.0
15.33
24.67
26.67
9.67
2.0
21.67
8.0
15.33
12.67
16.67
10.0
13.67
11.33
11.33
-3.33
8.67
6.33
4.67
12.67
-4.0
-4.67
15.67
-2.33
7.0
13.33
5.67
9.0
10.0
17.33
22.67
6.67
11.33
3.0
10.0
-0.67
7.67
11.67
13.33
5.67
13.33
1.67
6.0
0.0
5.33
8.67
2.67
5.33
5.0
-3.33
1.0
1.67
-1.67
1.67
8.33
7.33
7.67
-1.67
6.33
2.0
-5.67
2.67
-2.67
7.0
-1.67
4.67
-6.67
8.0
8.0
1.67
-3.67
-9.0
5.67
-0.33
2.33
0.33
6.67
-4.67
2.0
-0.67
3.33
1.67
-2.67
2.67
5.33
-3.67
2.67
-1.0
5.67
9.67
4.0
2.67
8.0
1.0
5.0
-1.0
5.33
-2.33
4.0
1.33

File: 10.0.txt
0.0
-28.0
-5.0
7.67
-9.0
2.67
2.67
-0.33
-0.33
-0.67
0.0
-0.33
0.67
-1.33
-1.67
-1.0
-1.33
-1.33
-1.0
-1.67
3.67
4.67
1.0
2.67
-4.0
5.0
6.67
4.33
7.33
5.0
4.67
3.0
-2.33
4.67
-2.0
4.0
5.33
2.33
-1.0
0.67
1.0
4.0
2.67
1.67
1.0
0.33
7.33
1.0
-2.33
-3.33
5.33
3.0
-1.33
3.0
-3.0
5.33
6.67
1.67
0.33
2.67
4.67
4.33
4.33
2.67
3.33
1.33
3.67
1.0
1.67
2.33
-1.67
6.33
4.33
1.67
3.0
5.33
5.67
-0.33
-2.67
5.0
3.67
1.67
1.0
1.67
0.0
0.0
-1.67
-1.0
-3.0
2.33
3.0
-2.67
-1.0
-2.0
3.33
-1.0
3.67
2.67
1.67
3.0
-1.67
8.33
-1.0
-4.67
4.67
-5.0
4.0
1.0
0.0
1.67
0.0
1.33
1.0
0.67
-1.0
5.67
2.33
-1.0
-0.33
6.33
3.67
0.0
8.67
3.33
8.67
7.33
5.33
4.33
18.67
3.0
-0.67
4.0
20.67
18.67
26.0
22.67
12.0
11.33
13.33
32.67
40.67
49.33
38.33
21.67
22.67
29.33
27.67
23.67
18.33
26.67
22.0
30.67
36.33
30.33
33.0
48.67
46.67
33.0
10.67
10.0
10.67
8.67
14.33
17.0
11.0
14.0
20.67
17.33
18.33
74.33
177.33
205.67
119.0
48.0
43.67
46.33
41.0
44.67
88.0
72.33
47.33
20.67
4.0
-0.67
13.0
7.0
10.0
27.67
11.0
10.0
25.0
22.0
10.0
28.33
21.0
21.33
18.67
16.67
10.67
9.0
13.67
12.0
5.33
8.67
7.67
12.0
15.67
0.33
11.33
2.67
14.67
4.33
3.67
6.67
-1.0
15.33
14.67
9.67
9.0
8.33
14.67
-3.0
17.0
3.33
9.67
4.67
12.33
1.0
14.0
18.33
10.67
-1.33
1.33
15.67
2.33
-4.33
2.0
10.0
5.33
9.67
9.67
4.33
2.0
9.67
5.0
3.67
2.33
-1.33
11.33
8.33
-3.33
-5.67
-5.67
4.0
-2.67
-4.33
-1.67
12.0
0.33
4.67
-7.67
3.0
3.0
3.67
-4.67
-1.0
0.67
0.67
0.33
1.33
-1.33
2.33
0.0
2.33
-0.67
5.67
3.33
8.67
1.33
1.33
5.67
0.0
1.67
6.67
-3.0
-3.33
0.0
3.0
5.0
4.0
-1.67
-0.33
1.0
4.33

File: 10.75.txt
0.0
-7.0
6.0
8.67
8.0
6.67
0.67
-0.33
-0.33
-0.67
0.0
0.67
-0.33
-1.33
-1.67
-2.0
0.67
0.67
-4.0
1.33
3.67
3.67
2.0
-2.33
2.0
7.0
-2.33
3.33
0.33
4.0
0.67
11.0
-1.33
6.67
-1.0
4.0
11.33
1.33
2.0
1.67
7.0
8.0
5.67
5.67
-3.0
4.33
3.33
0.0
3.67
5.67
-4.67
1.0
-1.33
8.0
1.0
6.33
0.67
5.67
4.33
10.67
3.67
1.33
2.33
-0.33
-3.67
2.33
-1.33
1.0
1.67
4.33
-0.67
-3.67
0.33
0.67
0.0
5.33
0.67
-2.33
-3.67
-3.0
-1.33
-1.33
10.0
-0.33
4.0
-1.0
-2.67
1.0
-2.0
8.33
-1.0
-1.67
0.0
3.0
1.33
3.0
-0.33
0.67
-2.33
4.0
-0.67
1.33
4.0
-1.67
-4.33
2.0
4.0
6.0
-5.0
-0.33
-2.0
-1.67
1.0
1.67
6.0
0.67
6.33
6.0
6.67
1.33
1.67
7.0
9.67
14.33
7.67
5.33
1.33
8.33
11.67
9.0
15.33
16.0
12.67
28.67
30.0
31.67
27.0
12.33
13.33
15.67
25.67
27.33
69.33
52.67
22.67
18.33
26.67
22.67
28.33
28.67
22.0
35.67
37.33
26.33
28.0
30.67
24.67
27.0
17.67
4.0
14.67
13.67
19.33
16.0
25.0
14.0
9.67
27.33
24.33
72.33
154.33
159.67
114.0
41.0
32.67
23.33
70.0
95.67
73.0
124.33
95.33
72.67
32.0
15.33
28.0
25.0
23.0
18.67
21.0
28.0
36.0
23.0
12.0
22.33
15.0
23.33
28.67
20.67
9.67
10.0
17.67
4.0
11.33
5.67
21.67
2.0
18.67
17.33
17.33
-5.33
5.67
5.33
-0.33
-6.33
3.0
12.33
14.67
3.67
7.0
4.33
5.67
8.0
-2.0
5.33
15.67
4.67
15.33
16.0
19.0
-0.67
5.67
-2.33
4.33
5.67
11.33
-3.33
7.0
-3.0
16.33
9.67
3.67
6.33
0.0
1.67
7.0
2.67
6.33
-6.33
7.33
1.33
15.67
2.33
-0.67
0.0
-2.67
-0.33
-3.67
-1.0
0.33
0.67
-9.67
1.0
3.0
5.67
2.33
-5.0
4.67
8.67
-1.67
1.33
7.67
4.33
1.0
4.33
-3.67
3.67
-0.67
2.67
5.33
3.33
0.67
2.0
1.67
2.67
3.0
-3.33
1.0
-1.0
1.0
4.0
-2.67
-2.33
4.0
4.33

File: 11.0.txt
0.0
-17.0
-37.0
3.67
-8.0
1.67
3.67
-0.33
0.67
-0.67
0.0
0.67
-0.33
-1.33
-0.67
-2.0
1.67
2.67
-1.0
0.33
1.67
0.67
-2.0
3.67
1.0
8.0
-1.33
4.33
9.33
3.0
0.67
1.0
0.67
-2.33
0.0
3.0
1.33
-3.67
2.0
6.67
-4.0
6.0
5.67
4.67
-5.0
0.33
1.33
1.0
5.67
-0.33
2.33
-3.0
0.67
4.0
3.0
4.33
2.67
-2.33
8.33
2.67
0.67
3.33
2.33
5.67
-4.67
5.33
-2.33
0.0
0.67
-0.67
5.33
-3.67
4.33
-0.33
3.0
3.33
3.67
-0.33
0.33
0.0
4.67
3.67
3.0
3.67
4.0
1.0
-0.67
0.0
4.0
2.33
3.0
0.33
-2.0
-2.0
3.33
7.0
3.67
-3.33
-1.33
4.0
0.33
8.33
3.0
-2.67
4.67
-4.0
2.0
8.0
-5.0
4.67
1.0
6.33
1.0
3.67
0.0
6.67
2.33
4.0
3.67
6.33
-0.33
5.0
26.67
12.33
15.67
15.33
14.33
9.33
12.67
12.0
15.33
17.0
8.67
28.67
23.0
22.67
22.0
11.33
9.33
17.67
25.67
59.33
62.33
24.67
29.67
10.33
15.67
26.67
30.33
18.67
21.0
36.67
48.33
47.33
44.0
20.67
26.67
21.0
12.67
10.0
6.67
10.67
11.33
11.0
12.0
9.0
16.67
18.33
46.33
90.33
128.33
126.67
82.0
75.0
23.67
33.33
64.0
66.67
74.0
33.33
38.33
33.67
21.0
13.33
15.0
3.0
16.0
27.67
33.0
22.0
34.0
26.0
20.0
23.33
23.0
17.33
7.67
13.67
3.67
4.0
13.67
4.0
10.33
3.67
11.67
20.0
19.67
8.33
13.33
10.67
4.67
5.33
15.67
8.67
-1.0
12.33
15.67
10.67
2.0
22.33
17.67
-5.0
5.0
19.33
26.67
11.67
16.33
6.0
16.0
-5.67
11.67
6.67
4.33
11.67
20.33
4.67
9.0
8.0
9.33
16.67
-1.33
4.33
7.0
0.67
0.0
-1.33
2.33
-7.33
3.33
-2.67
7.67
1.33
-4.67
6.0
5.33
8.67
-0.67
-2.0
5.33
5.67
-1.67
5.0
2.0
-0.33
2.33
-1.0
12.67
-0.33
-1.67
1.33
10.67
1.33
-1.0
11.33
8.33
-0.33
-3.67
1.67
3.33
-5.67
-0.33
0.0
1.67
5.67
4.0
-3.33
4.0
11.0
6.0
-1.0
1.33
-5.33
3.0
-1.67

File: 12.25.txt
0.0
7.0
-5.0
4.67
-4.0
1.67
-0.33
-0.33
-0.33
-0.67
1.0
-0.33
-0.33
0.67
-0.67
-1.0
2.67
1.67
-1.0
3.33
7.67
-0.33
3.0
3.67
-7.0
3.0
-2.33
3.33
4.33
3.0
-5.33
0.0
-5.33
4.67
-5.0
2.0
7.33
-7.67
-2.0
5.67
-4.0
6.0
1.67
0.67
-7.0
-2.67
-2.67
0.0
1.67
-0.33
-1.67
2.0
-0.33
-1.0
-1.0
-0.67
1.67
-1.33
9.33
-0.33
4.67
-0.67
4.33
0.67
2.33
2.33
-0.33
0.0
3.67
0.33
3.33
-3.67
0.33
0.67
-3.0
1.33
-0.33
-3.33
-2.67
4.0
2.67
-1.33
2.0
-1.33
-1.0
-5.0
1.33
5.0
-5.0
3.33
-1.0
-2.67
-2.0
-5.0
-0.67
0.0
0.67
-0.33
-2.33
1.0
-0.67
-0.67
-2.0
1.33
0.67
-1.0
0.0
1.0
-6.0
-0.33
-3.0
-2.67
8.0
3.67
0.0
1.67
4.33
-3.0
0.67
2.33
-0.33
2.0
4.67
0.33
-1.33
-0.67
-5.67
-0.67
1.67
-7.0
-1.67
0.0
-3.33
3.67
-8.0
1.67
1.0
1.33
1.33
-0.33
-7.33
-2.67
2.33
0.67
-6.33
0.33
-0.33
1.67
1.33
-4.33
3.0
-2.33
1.33
0.33
1.0
7.67
-0.33
-5.0
4.67
5.0
2.67
2.67
-0.67
-3.0
-2.0
-3.0
0.67
5.33
-2.67
8.33
-0.67
-2.33
-2.0
4.0
-1.33
0.33
2.0
-7.33
-4.0
-0.67
1.33
-1.33
4.0
6.33
-3.0
0.0
-1.0
1.67
1.0
1.0
3.0
4.0
2.0
7.33
-2.0
-0.67
0.67
-4.33
-5.33
1.0
2.67
4.0
2.33
1.67
-5.33
8.0
0.67
0.33
1.33
0.67
-12.33
2.33
-10.33
0.67
-4.0
-4.67
6.67
-4.33
-9.0
-3.67
1.67
10.0
-2.0
-2.67
-1.33
-6.33
0.33
-8.0
2.0
-1.67
1.67
-7.33
3.33
2.67
2.33
-12.33
-2.0
3.0
6.33
2.67
1.67
-1.67
-2.0
1.67
3.0
-9.33
0.33
1.67
1.33
-3.67
-1.33
-0.67
-0.67
4.0
-2.67
-1.33
-6.67
-4.0
0.33
5.67
-9.67
-2.0
1.0
0.67
1.33
-8.0
4.67
2.67
1.33
0.33
7.67
-2.67
-6.0
-1.67
-1.67
-2.33
-1.67
-1.33
2.33
-3.67
-3.33
4.0
-2.33
5.67
-2.0
-5.33
-3.0
3.0
0.0
3.0
1.33
-6.33
-1.0
1.33

File: background.txt
0.0
1889.0
1058.0
239.33
41.0
3.33
0.33
0.33
0.33
0.67
0.0
0.33
0.33
2.33
1.67
2.0
1.33
3.33
7.0
5.67
3.33
8.33
8.0
8.33
11.0
7.0
9.33
5.67
5.67
9.0
12.33
9.0
11.33
8.33
10.0
8.0
10.67
11.67
9.0
10.33
11.0
7.0
7.33
8.33
11.0
9.67
9.67
10.0
8.33
9.33
7.67
7.0
8.33
8.0
8.0
6.67
6.33
8.33
6.67
6.33
4.33
6.67
4.67
6.33
7.67
4.67
7.33
6.0
4.33
5.67
6.67
7.67
4.67
6.33
5.0
3.67
2.33
6.33
4.67
5.0
3.33
5.33
3.0
4.33
5.0
5.0
4.67
4.0
7.0
2.67
3.0
5.67
6.0
6.0
3.67
4.0
4.33
5.33
6.33
5.0
6.67
5.67
7.0
8.67
6.33
8.0
5.0
5.0
9.0
7.33
11.0
8.67
6.0
6.33
9.0
7.33
8.67
8.0
7.33
6.67
9.33
10.0
7.33
9.67
8.33
7.67
10.67
8.67
7.33
9.0
11.67
10.0
10.33
13.33
15.0
9.33
10.0
8.67
9.67
10.33
11.33
7.67
6.67
8.33
10.33
7.67
6.33
9.33
9.67
11.33
11.0
12.33
9.67
8.67
9.0
9.33
10.33
8.0
10.33
9.0
7.33
11.33
10.67
13.0
25.0
15.0
11.33
12.67
24.67
30.67
20.67
8.33
11.0
12.0
12.33
9.67
9.0
14.33
12.0
14.67
10.67
16.33
11.0
13.67
12.0
16.0
17.0
15.33
18.0
20.0
25.0
28.0
25.0
16.67
20.0
19.67
21.33
21.33
21.33
24.0
18.33
20.0
21.67
23.33
19.33
22.0
21.33
24.67
17.67
29.33
25.33
25.67
27.33
29.33
28.0
25.67
22.33
27.33
32.0
24.67
23.33
28.0
27.0
28.67
26.33
34.33
29.67
30.0
23.0
33.67
25.33
24.33
26.67
23.33
24.67
28.33
21.0
24.0
21.67
18.33
21.33
20.67
20.0
20.33
22.0
21.33
20.67
26.33
16.67
18.67
19.33
19.67
21.67
16.0
19.67
17.33
18.67
18.0
15.67
11.33
19.67
15.0
9.0
11.33
13.67
15.0
8.33
11.33
14.67
10.67
9.33
12.67
14.0
7.67
10.67
10.33
11.67
10.33
7.67
11.67
11.33
11.0
9.33
5.33
9.0
12.33
8.0
6.0
6.0
8.0
7.67
9.33
6.0
7.67