Folder: EDX-Concrete-Analysis/EDX Back Ups and Old Files/Spectra copy 3.3.23/Samples/Low pH SF 25C 9d

Note: README.md
This is Anthony's repository for doing all sorts of Energy Dispersive X-ray Analysis on concrete samples.

File: 6.5.txt
0.0
92.0
49.0
-15.0
3.0
-1.0
-0.67
-1.33
-1.0
0.0
-0.33
-0.67
0.0
-0.33
-0.33
2.33
0.67
2.0
4.0
1.33
3.67
-0.67
5.67
0.67
-2.67
-2.33
3.0
8.0
0.67
6.0
-0.67
3.67
2.67
5.33
5.0
-2.0
4.33
0.67
1.0
4.67
-1.0
1.33
3.0
2.33
9.67
2.0
4.0
-2.33
2.33
4.67
5.0
3.67
0.33
0.0
3.67
-1.33
-1.67
2.67
-2.0
7.67
2.33
-1.0
1.0
5.0
1.67
2.67
2.0
4.33
7.67
6.0
4.33
-5.67
5.33
3.33
2.0
1.33
7.33
-1.67
2.0
2.33
6.33
-0.33
0.0
1.67
0.67
1.33
-0.33
0.33
2.0
0.0
1.67
0.0
2.33
5.67
0.33
-0.67
-4.67
2.0
2.33
-3.67
-3.0
0.0
1.0
2.0
-2.67
-5.67
2.33
-1.0
0.67
4.0
2.67
-1.33
-5.0
2.0
-1.0
2.0
-4.67
1.33
-6.33
-1.0
-4.67
-1.33
-5.0
1.67
-0.67
-2.67
-1.0
0.33
-3.0
4.67
5.0
13.67
2.0
0.33
20.67
9.33
11.33
0.33
23.0
16.67
52.33
36.0
5.33
2.0
4.33
20.0
12.0
6.0
16.67
7.67
13.67
12.33
22.0
17.0
16.67
7.33
18.0
8.67
16.0
9.0
5.33
7.33
8.67
12.0
7.33
8.0
6.33
9.33
23.33
63.0
102.67
78.67
34.67
8.33
32.67
37.67
71.33
56.67
75.33
56.33
21.0
23.0
13.33
9.33
5.67
6.67
16.33
23.67
8.67
32.33
23.67
17.67
17.0
-0.67
9.0
9.33
13.67
24.67
0.67
23.0
15.0
7.67
1.33
-1.0
0.67
-6.0
12.33
6.33
3.67
3.0
2.0
18.0
0.0
9.33
9.67
17.33
10.0
12.67
6.33
8.0
7.0
15.0
8.33
27.0
3.0
20.33
18.67
10.67
15.67
10.33
3.67
12.0
13.33
15.0
13.0
12.33
-3.0
8.33
14.67
3.33
11.33
4.0
11.33
12.0
-2.33
-4.67
3.0
-5.33
5.0
1.0
0.0
6.0
1.67
5.0
7.67
2.33
-3.33
0.33
3.33
1.67
-3.67
2.67
0.0
6.67
2.0
-2.67
6.33
7.33
2.33
2.0
4.0
-2.0
8.0
3.33
5.33
-0.67
-3.0
-0.67
1.67
3.67
5.33
6.0
1.67
1.67
0.0
4.67
-0.67
2.0
-0.67
-1.67
4.33
1.33
1.33
-2.33

File: 6.25.txt
0.0
-17.0
-60.0
-24.0
-7.0
-1.0
-0.67
-1.33
-1.0
0.0
-0.33
1.33
2.0
1.67
1.67
0.33
-0.33
-2.0
3.0
-2.67
6.67
1.33
6.67
3.67
7.33
-1.33
-2.0
4.0
-1.33
3.0
1.33
1.67
2.67
8.33
3.0
0.0
16.33
5.67
8.0
6.67
6.0
4.33
4.0
5.33
4.67
4.0
5.0
6.67
5.33
0.67
5.0
1.67
-0.67
-2.0
4.67
2.67
1.33
-0.33
-1.0
11.67
-0.67
2.0
-1.0
2.0
-1.33
3.67
6.0
-0.67
2.67
3.0
5.33
-4.67
-0.67
0.33
6.0
2.33
0.33
3.33
6.0
4.33
-2.67
-3.33
1.0
-0.33
5.67
5.33
5.67
0.33
-2.0
3.0
0.67
-2.0
0.33
-4.33
1.33
-2.67
-0.67
0.0
0.33
-3.67
0.0
1.0
-2.0
1.0
-3.67
-2.67
-2.67
3.0
-3.33
6.0
-0.33
-2.33
-1.0
-1.0
3.0
5.0
3.33
-3.67
-7.33
-1.0
-1.67
-0.33
-6.0
3.67
-5.67
3.33
-4.0
-2.67
3.0
13.67
-1.0
12.67
6.0
11.33
14.67
11.33
0.33
0.33
11.0
15.67
66.33
36.0
19.33
16.0
11.33
22.0
8.0
15.0
12.67
19.67
22.67
21.33
10.0
12.0
10.67
16.33
21.0
11.67
4.0
-1.0
0.33
7.33
18.67
12.0
16.33
0.0
4.33
8.33
24.33
70.0
97.67
70.67
36.67
10.33
17.67
5.67
32.33
20.67
44.33
43.33
23.0
25.0
4.33
8.33
9.67
4.67
14.33
20.67
22.67
23.33
24.67
19.67
20.0
3.33
19.0
17.33
6.67
19.67
3.67
17.0
2.0
9.67
4.33
7.0
20.67
-4.0
6.33
5.33
16.67
3.0
1.0
16.0
0.0
4.33
13.67
6.33
16.0
5.67
6.33
8.0
8.0
11.0
8.33
27.0
12.0
23.33
21.67
-1.33
18.67
14.33
-0.33
11.0
16.33
10.0
1.0
6.33
4.0
6.33
6.67
0.33
-4.67
10.0
6.33
12.0
-2.33
10.33
4.0
-2.33
16.0
8.0
3.0
6.0
-3.33
4.0
-5.33
6.33
10.67
-1.67
5.33
4.67
-6.67
4.67
-5.0
1.67
-1.0
7.33
-0.67
7.33
-0.67
-3.0
10.0
-4.0
1.0
2.33
7.33
-2.67
-2.0
-2.67
3.67
3.67
4.33
7.0
6.67
-4.33
0.0
6.67
1.33
5.0
3.33
3.33
11.33
5.33
-2.67
-2.33

File: 7.5.txt
0.0
45.0
-37.0
-29.0
-5.0
0.0
-0.67
-1.33
-1.0
1.0
-0.33
-0.67
1.0
2.67
0.67
0.33
-0.33
1.0
2.0
1.33
0.67
-0.67
10.67
9.67
7.33
3.67
1.0
5.0
7.67
1.0
2.33
4.67
-4.33
7.33
6.0
6.0
2.33
0.67
7.0
8.67
5.0
2.33
5.0
4.33
4.67
-1.0
5.0
10.67
7.33
4.67
0.0
7.67
-5.67
-3.0
0.67
2.67
-0.67
0.67
1.0
4.67
0.33
-1.0
2.0
5.0
3.67
7.67
3.0
3.33
-1.33
1.0
5.33
-3.67
4.33
-0.67
4.0
-2.67
1.33
3.33
3.0
3.33
0.33
-3.33
5.0
3.67
1.67
4.33
-1.33
-1.67
1.0
0.0
2.67
-4.0
1.33
0.67
4.33
1.33
-6.67
-2.0
-0.67
-1.67
-4.0
2.0
1.0
-2.0
2.33
-7.67
1.33
-3.0
-4.33
3.0
4.67
-2.33
-1.0
-5.0
-2.0
-4.0
-2.67
0.33
-4.33
-1.0
1.33
0.67
0.0
-1.33
6.33
4.33
0.0
-8.67
2.0
0.67
0.0
0.67
9.0
15.33
44.67
71.33
18.33
10.33
9.0
-1.33
22.33
22.0
19.33
10.0
3.33
10.0
13.0
10.0
16.67
16.67
8.67
25.33
19.0
10.0
19.67
15.33
6.0
14.67
17.0
2.0
1.33
19.33
5.67
11.0
6.33
7.0
6.33
5.33
31.33
41.0
66.67
110.67
87.67
23.33
35.67
44.67
75.33
79.67
64.33
54.33
18.0
16.0
20.33
14.33
11.67
8.67
12.33
17.67
22.67
33.33
29.67
13.67
11.0
-0.67
17.0
29.33
3.67
14.67
15.67
7.0
18.0
1.67
8.33
8.0
8.67
8.0
6.33
11.33
13.67
2.0
0.0
10.0
2.0
17.33
17.67
15.33
12.0
7.67
11.33
15.0
24.0
13.0
16.33
20.0
-5.0
1.33
22.67
14.67
14.67
16.33
-2.33
4.0
5.33
1.0
10.0
1.33
12.0
6.33
19.67
4.33
5.33
19.0
11.33
8.0
-1.33
13.33
-7.0
2.67
1.0
6.0
10.0
-3.0
-0.33
11.0
3.67
12.33
-5.33
-0.67
-2.67
19.67
-7.67
5.67
7.0
6.67
5.0
2.33
19.33
6.33
7.33
4.0
7.0
4.0
2.0
5.33
8.33
2.33
5.0
1.33
2.67
1.67
7.33
2.0
1.67
1.67
1.0
2.67
2.33
3.0
-3.67
-2.67
2.33
-2.67
-4.67
-2.33

File: 7.25.txt
0.0
-44.0
20.0
-10.0
-4.0
0.0
0.33
-1.33
-1.0
1.0
-0.33
0.33
1.0
-0.33
0.67
2.33
-0.33
-2.0
2.0
-1.67
-5.33
-1.67
-0.33
6.67
7.33
-0.33
-2.0
5.0
1.67
1.0
-1.67
-0.33
-1.33
4.33
3.0
0.0
1.33
-4.33
9.0
1.67
5.0
-0.67
4.0
6.33
7.67
5.0
3.0
1.67
4.33
1.67
8.0
3.67
0.33
0.0
5.67
-0.33
3.33
4.67
1.0
5.67
-1.67
-2.0
3.0
2.0
4.67
3.67
1.0
1.33
-4.33
6.0
1.33
-6.67
-1.67
6.33
2.0
-0.67
5.33
4.33
0.0
6.33
2.33
-2.33
0.0
3.67
-1.33
5.33
-3.33
2.33
3.0
-4.0
3.67
1.0
-3.67
0.67
4.33
-0.67
-6.67
-1.0
-2.67
-1.67
-6.0
0.0
4.0
-1.0
0.33
-8.67
-0.67
-3.0
-2.33
1.0
1.67
-2.33
-4.0
2.0
8.0
-4.0
-7.67
1.33
-0.33
-3.0
1.33
-4.33
3.0
0.67
-2.67
8.33
0.0
6.33
1.0
3.67
5.0
-3.33
10.0
25.33
42.67
63.33
21.33
-7.67
20.0
9.67
26.33
21.0
13.33
9.0
9.33
4.0
10.0
12.0
15.67
2.67
23.67
35.33
37.0
17.0
1.67
20.33
4.0
9.67
12.0
13.0
3.33
16.33
17.67
11.0
10.33
0.0
0.33
2.33
24.33
35.0
74.67
88.67
76.67
38.33
20.67
71.67
94.33
56.67
37.33
30.33
23.0
21.0
12.33
9.33
7.67
8.67
9.33
14.67
31.67
17.33
35.67
17.67
15.0
9.33
13.0
10.33
6.67
3.67
6.67
30.0
2.0
3.67
-3.67
5.0
4.67
4.0
6.33
14.33
21.67
10.0
7.0
7.0
11.0
-3.67
15.67
14.33
13.0
5.67
8.33
8.0
14.0
12.0
-4.67
11.0
1.0
2.33
26.67
17.67
9.67
15.33
-1.33
1.0
17.33
8.0
15.0
11.33
6.0
13.33
6.67
6.33
-0.67
8.0
13.33
13.0
-1.33
5.33
1.0
-7.33
12.0
3.0
-8.0
-2.0
3.67
8.0
3.67
13.33
1.67
1.33
-0.67
5.67
-1.67
6.67
4.0
-2.33
10.0
6.33
2.33
0.33
3.33
5.0
5.0
1.0
0.0
0.33
8.33
7.33
1.0
-0.67
12.67
-3.33
6.33
3.0
-3.33
4.67
6.0
4.67
1.33
4.0
1.33
0.33
3.33
-0.67
2.33
-2.33

File: 7.75.txt
0.0
10.0
-28.0
-4.0
2.0
-3.0
-0.67
-0.33
-1.0
1.0
0.67
-0.67
1.0
-0.33
0.67
2.33
1.67
-1.0
1.0
3.33
1.67
5.33
-0.33
2.67
4.33
0.67
0.0
6.0
-1.33
2.0
4.33
-3.33
-1.33
3.33
6.0
-4.0
7.33
-0.33
4.0
3.67
7.0
-1.67
3.0
8.33
4.67
6.0
3.0
5.67
-2.67
0.67
1.0
-5.33
2.33
-1.0
3.67
3.67
2.33
2.67
2.0
6.67
5.33
-1.0
-3.0
7.0
-1.33
-0.33
4.0
3.33
0.67
2.0
6.33
-3.67
5.33
1.33
5.0
5.33
3.33
3.33
0.0
2.33
-0.67
-1.33
-2.0
3.67
2.67
-0.67
-3.33
1.33
1.0
2.0
-0.33
0.0
-4.67
-3.33
1.33
-1.67
-3.67
-1.0
-2.67
-2.67
0.0
-1.0
-3.0
-2.0
-0.67
-5.67
0.33
-2.0
-7.33
3.0
-0.33
4.67
-4.0
-5.0
2.0
-5.0
-5.67
4.33
-3.33
-4.0
3.33
-3.33
0.0
-0.33
-1.67
6.33
-2.0
-7.67
3.0
4.67
1.0
-4.33
-1.0
17.33
27.67
40.33
16.33
4.33
8.0
4.67
26.33
23.0
20.33
17.0
3.33
11.0
8.0
15.0
8.67
8.67
15.67
24.33
39.0
16.0
17.67
20.33
21.0
8.67
10.0
7.0
12.33
9.33
13.67
12.0
9.33
5.0
2.33
10.33
19.33
33.0
60.67
113.67
104.67
45.33
17.67
26.67
54.33
40.67
41.33
29.33
26.0
14.0
12.33
6.33
6.67
18.67
7.33
7.67
15.67
33.33
12.67
8.67
10.0
4.33
17.0
11.33
1.67
21.67
14.67
14.0
12.0
5.67
4.33
7.0
-2.33
-4.0
1.33
14.33
20.67
4.0
10.0
7.0
24.0
3.33
20.67
-2.67
3.0
9.67
20.33
16.0
0.0
5.0
10.33
17.0
4.0
2.33
10.67
18.67
3.67
13.33
8.67
0.0
5.33
0.0
6.0
-2.67
7.0
6.33
5.67
-2.67
5.33
3.0
3.33
-4.0
-2.33
-2.67
0.0
2.67
10.0
12.0
2.0
7.0
7.67
4.0
7.67
11.33
-3.33
5.33
-1.67
-1.33
-7.67
3.67
6.0
-8.33
8.0
-4.67
6.33
1.33
2.33
1.0
4.0
5.0
-1.0
1.33
3.33
0.33
1.0
6.33
6.67
8.67
1.33
-1.0
6.67
5.67
5.0
3.67
6.33
6.0
3.33
-0.67
3.33
1.33
5.33
-2.33

File: 8.5.txt
0.0
-3.0
-48.0
-32.0
-3.0
1.0
0.33
-1.33
0.0
1.0
-0.33
-0.67
1.0
0.67
0.67
0.33
0.67
0.0
-2.0
8.33
-0.33
2.33
4.67
1.67
-0.67
7.67
-1.0
7.0
0.67
9.0
0.33
-4.33
-4.33
-0.67
4.0
5.0
5.33
0.67
5.0
8.67
-1.0
6.33
-1.0
2.33
0.67
0.0
8.0
0.67
3.33
-3.33
4.0
4.67
-4.67
5.0
13.67
-2.33
1.33
-0.33
2.0
7.67
5.33
-2.0
1.0
4.0
3.67
2.67
6.0
6.33
3.67
6.0
3.33
-3.67
-2.67
-2.67
3.0
0.33
5.33
2.33
2.0
4.33
-0.67
-2.33
1.0
2.67
-0.33
1.33
-0.33
0.33
2.0
-2.0
4.67
-3.0
-1.67
1.67
0.33
-2.67
-8.67
-4.0
-1.67
0.33
0.0
1.0
1.0
-4.0
0.33
-4.67
-0.67
1.0
-2.33
1.0
2.67
-0.33
-5.0
-1.0
-4.0
-5.0
-1.67
4.33
-1.33
5.0
3.33
-3.33
3.0
4.67
5.33
8.33
0.0
8.33
-2.0
6.67
7.0
7.67
12.0
29.33
31.67
52.33
22.33
2.33
8.0
7.67
22.33
30.0
14.33
9.0
6.33
16.0
10.0
16.0
15.67
9.67
21.67
27.33
27.0
11.0
10.67
26.33
22.0
10.67
14.0
-4.0
4.33
25.33
13.67
11.0
18.33
-3.0
7.33
18.33
39.33
48.0
38.67
42.67
52.67
34.33
14.67
33.67
54.33
79.67
77.33
50.33
29.0
31.0
13.33
3.33
10.67
6.67
23.33
16.67
17.67
14.33
19.67
24.67
11.0
11.33
24.0
25.33
-1.33
17.67
9.67
7.0
13.0
-2.33
5.33
13.0
17.67
-7.0
8.33
14.33
20.67
-4.0
13.0
4.0
6.0
9.33
9.67
4.33
11.0
-0.33
4.33
2.0
13.0
-3.0
7.33
15.0
3.0
1.33
26.67
5.67
10.67
15.33
2.67
18.0
18.33
0.0
5.0
3.33
1.0
2.33
10.67
4.33
-1.67
-3.0
12.33
4.0
0.67
2.33
-3.0
-6.33
11.0
2.0
4.0
3.0
2.67
0.0
2.67
5.33
-7.33
-2.67
5.33
-2.33
-0.67
4.67
-4.0
1.67
3.0
0.33
4.33
-2.67
-1.67
0.0
0.0
6.0
-2.0
5.33
5.33
-3.67
7.0
11.33
3.67
2.67
3.33
8.0
10.67
3.67
0.0
7.67
3.33
1.0
2.33
9.33
4.33
-2.67
2.33
-5.33

File: 8.25.txt
0.0
-67.0
15.0
-25.0
3.0
1.0
-0.67
-1.33
-1.0
0.0
1.67
-0.67
0.0
0.67
0.67
1.33
-0.33
1.0
5.0
-0.67
2.67
3.33
0.67
1.67
1.33
-0.33
5.0
8.0
0.67
-2.0
-0.67
-0.33
1.67
8.33
4.0
5.0
6.33
-1.33
2.0
4.67
4.0
2.33
4.0
5.33
1.67
-1.0
1.0
10.67
6.33
4.67
6.0
-1.33
-1.67
-1.0
8.67
6.67
4.33
3.67
-5.0
5.67
-2.67
7.0
1.0
6.0
-0.33
3.67
1.0
-0.67
0.67
7.0
1.33
-0.67
2.33
2.33
-1.0
-3.67
2.33
2.33
4.0
2.33
3.33
-0.33
2.0
4.67
-0.33
7.33
-3.33
2.33
-1.0
-2.0
0.67
2.0
-0.67
0.67
2.33
2.33
-6.67
-1.0
-2.67
-3.67
-1.0
0.0
0.0
0.0
1.33
-6.67
-2.67
-1.0
-5.33
0.0
1.67
1.67
-1.0
0.0
-3.0
-3.0
-1.67
-0.67
1.67
0.0
1.33
0.67
-2.0
0.67
1.33
1.33
-4.0
-2.67
0.0
7.67
11.0
0.67
7.0
15.33
43.67
37.33
22.33
0.33
11.0
8.67
14.33
20.0
13.33
5.0
10.33
2.0
10.0
21.0
10.67
5.67
17.67
21.33
42.0
16.0
9.67
18.33
20.0
27.67
9.0
6.0
4.33
9.33
19.67
10.0
13.33
22.0
2.33
4.33
20.33
32.0
39.67
81.67
87.67
38.33
15.67
17.67
46.33
60.67
61.33
34.33
27.0
18.0
15.33
8.33
4.67
1.67
5.33
12.67
22.67
12.33
28.67
30.67
24.0
11.33
22.0
21.33
6.67
21.67
6.67
19.0
5.0
3.67
3.33
14.0
16.67
-3.0
11.33
6.33
25.67
3.0
3.0
15.0
8.0
2.33
5.67
7.33
4.0
-0.33
7.33
12.0
11.0
25.0
7.33
10.0
4.0
3.33
4.67
23.67
8.67
12.33
1.67
14.0
3.33
16.0
8.0
-5.67
12.0
4.33
14.67
4.33
2.33
2.0
13.33
18.0
-2.33
-4.67
2.0
-2.33
12.0
0.0
6.0
-2.0
-0.33
-3.0
7.67
7.33
4.67
7.33
-3.67
2.67
-0.67
7.67
5.0
2.67
14.0
-7.67
8.33
4.33
1.33
3.0
7.0
3.0
-2.0
2.33
4.33
-2.67
3.0
4.33
8.67
1.67
8.33
1.0
7.67
0.67
8.0
0.67
1.33
2.0
-0.67
-0.67
4.33
1.33
-4.67
1.67

File: 8.75.txt
0.0
12.0
-31.0
-17.0
-14.0
3.0
-0.67
-0.33
0.0
0.0
-0.33
-0.67
1.0
1.67
1.67
-0.67
1.67
1.0
0.0
2.33
5.67
-0.67
2.67
4.67
7.33
0.67
-1.0
2.0
1.67
-3.0
-3.67
6.67
-5.33
0.33
7.0
5.0
-2.67
-1.33
0.0
13.67
2.0
-1.67
-2.0
0.33
0.67
1.0
5.0
0.67
-5.67
-1.33
2.0
1.67
-1.67
-3.0
8.67
1.67
-1.67
0.67
1.0
3.67
2.33
-6.0
0.0
2.0
0.67
-2.33
1.0
1.33
0.67
-3.0
1.33
-4.67
4.33
-2.67
0.0
-0.67
-2.67
1.33
-1.0
3.33
3.33
-1.33
3.0
4.67
0.67
4.33
-4.33
1.33
-2.0
1.0
2.67
2.0
0.33
2.67
1.33
-0.67
-7.67
-1.0
1.33
-0.67
-1.0
2.0
1.0
-2.0
3.33
-5.67
-1.67
0.0
-5.33
3.0
1.67
4.67
1.0
-1.0
0.0
-3.0
-9.67
1.33
-0.33
2.0
-0.67
-3.33
-2.0
2.67
-1.67
6.33
2.0
2.33
9.0
7.67
-4.0
6.67
16.0
17.33
12.67
19.33
16.33
-0.67
10.0
7.67
19.33
18.0
32.33
35.0
34.33
44.0
5.0
14.0
14.67
9.67
18.67
24.33
24.0
16.0
24.67
18.33
18.0
15.67
16.0
11.0
6.33
8.33
11.67
29.0
7.33
-6.0
6.33
17.33
65.33
93.0
79.67
70.67
90.67
36.33
26.67
19.67
29.33
36.67
46.33
32.33
24.0
9.0
18.33
15.33
10.67
11.67
12.33
20.67
23.67
16.33
35.67
28.67
19.0
7.33
37.0
14.33
7.67
2.67
11.67
18.0
3.0
1.67
8.33
10.0
10.67
4.0
-4.67
12.33
15.67
5.0
1.0
8.0
-1.0
6.33
6.67
-2.67
8.0
3.67
1.33
15.0
18.0
3.0
11.33
18.0
2.0
19.33
13.67
-2.33
9.67
7.33
-2.33
6.0
10.33
6.0
10.0
-0.67
-5.0
3.33
1.67
11.33
12.33
5.0
13.33
15.0
3.67
7.33
11.0
-10.33
8.0
1.0
4.0
-5.0
2.67
-1.0
0.67
7.33
2.67
-0.67
0.33
3.67
-2.67
2.67
-4.0
3.67
2.0
0.33
10.33
-0.67
0.33
-3.0
7.0
-1.0
0.0
3.33
7.33
4.33
0.0
1.33
-1.33
2.67
4.33
4.0
0.67
-0.33
1.0
6.67
1.33
-2.0
-1.67
5.33
3.33
3.33
-2.67
0.67

File: 9.0.txt
0.0
-17.0
-53.0
-34.0
-4.0
2.0
0.33
-0.33
-1.0
1.0
-0.33
0.33
0.0
-0.33
2.67
1.33
1.67
3.0
1.0
2.33
-0.33
-2.67
-1.33
4.67
8.33
0.67
3.0
3.0
6.67
3.0
-0.67
2.67
2.67
5.33
-2.0
1.0
3.33
5.67
5.0
13.67
2.0
-2.67
1.0
2.33
6.67
-4.0
1.0
7.67
-3.67
5.67
0.0
10.67
0.33
-3.0
1.67
-0.33
3.33
2.67
3.0
10.67
5.33
-1.0
-2.0
5.0
3.67
4.67
5.0
3.33
5.67
3.0
3.33
4.33
0.33
1.33
-1.0
1.33
1.33
3.33
-1.0
-0.67
2.33
-2.33
1.0
2.67
2.67
4.33
-0.33
2.33
1.0
0.0
2.67
2.0
2.33
-0.33
-0.67
2.33
-3.67
6.0
2.33
0.33
4.0
-4.0
0.0
4.0
1.33
-6.67
-1.67
-3.0
-4.33
1.0
0.67
-0.33
-5.0
0.0
4.0
-5.0
-1.67
6.33
0.67
3.0
2.33
1.67
8.0
2.67
-1.67
7.33
0.0
-1.67
7.0
2.67
-1.0
4.67
6.0
15.33
34.67
48.33
19.33
2.33
9.0
3.67
19.33
24.0
22.33
24.0
51.33
25.0
17.0
19.0
25.67
28.67
20.67
22.33
31.0
40.0
45.67
16.33
16.0
15.67
17.0
10.0
7.33
15.33
24.67
25.0
13.33
15.0
0.33
17.33
54.33
164.0
143.67
136.67
89.67
26.33
20.67
22.67
31.33
49.67
61.33
32.33
22.0
15.0
14.33
10.33
5.67
3.67
17.33
15.67
20.67
15.33
31.67
38.67
24.0
14.33
17.0
34.33
11.67
11.67
7.67
11.0
15.0
12.67
8.33
4.0
17.67
1.0
-0.67
0.33
14.67
7.0
-2.0
7.0
5.0
-1.67
12.67
3.33
4.0
6.67
14.33
26.0
17.0
17.0
7.33
7.0
19.0
8.33
12.67
22.67
4.67
15.33
-3.33
-5.0
7.33
6.0
12.0
-4.67
-2.0
8.33
1.67
5.33
-1.67
1.0
12.33
2.0
0.67
5.33
4.0
-3.33
5.0
6.0
-1.0
-5.0
-3.33
9.0
1.67
8.33
-1.33
6.33
0.33
-4.33
-2.67
0.67
-7.0
7.67
-1.0
-0.67
2.33
2.33
0.33
7.0
5.0
3.0
1.0
4.33
7.33
0.33
6.0
6.33
5.67
4.67
1.33
12.0
3.67
2.67
0.0
-0.33
-4.67
3.0
2.33
2.33
2.33
-0.67
-2.67
-0.33

File: 9.25.txt
0.0
39.0
-17.0
-22.0
9.0
4.0
1.33
-1.33
-1.0
0.0
-0.33
-0.67
1.0
-0.33
-0.33
2.33
-0.33
3.0
1.0
0.33
0.67
3.33
0.67
0.67
3.33
3.67
4.0
5.0
3.67
0.0
4.33
-3.33
7.67
7.33
-2.0
-2.0
4.33
4.67
-5.0
3.67
12.0
1.33
7.0
-0.67
5.67
2.0
4.0
-0.33
0.33
-1.33
6.0
2.67
0.33
1.0
2.67
5.67
1.33
1.67
-2.0
5.67
1.33
1.0
2.0
7.0
0.67
0.67
3.0
9.33
2.67
4.0
4.33
-3.67
0.33
-3.67
9.0
-2.67
1.33
0.33
-1.0
0.33
2.33
-2.33
5.0
4.67
1.67
2.33
0.67
1.33
2.0
-2.0
1.67
2.0
-1.67
-2.33
-3.67
-1.67
-6.67
-3.0
2.33
1.33
0.0
3.0
7.0
1.0
-3.67
-2.67
2.33
-2.0
0.67
6.0
2.67
-1.33
-2.0
5.0
-2.0
-3.0
-1.67
7.33
-1.33
2.0
7.33
1.67
-1.0
2.67
-0.67
7.33
-4.0
-5.67
0.0
8.67
-2.0
13.67
1.0
17.33
39.67
30.33
8.33
0.33
13.0
18.67
36.33
53.0
46.33
25.0
57.33
33.0
-1.0
22.0
44.67
21.67
23.67
4.33
33.0
58.0
52.67
25.33
13.0
5.67
20.0
15.0
3.33
6.33
19.67
20.0
11.33
25.0
15.33
23.33
51.33
186.0
243.67
194.67
92.67
45.33
26.67
21.67
46.33
52.67
54.33
36.33
29.0
15.0
8.33
9.33
5.67
11.67
16.33
18.67
25.67
23.33
32.67
23.67
19.0
3.33
32.0
35.33
20.67
7.67
2.67
23.0
16.0
-0.33
3.33
5.0
7.67
2.0
3.33
13.33
15.67
1.0
12.0
8.0
5.0
11.33
26.67
1.33
14.0
-2.33
-4.67
9.0
17.0
4.0
11.33
5.0
15.0
14.33
22.67
8.67
19.67
10.33
-0.33
-3.0
1.33
4.0
5.0
6.33
7.0
4.33
5.67
-3.67
-1.67
-1.0
10.33
12.0
-1.33
-4.67
-1.0
-4.33
2.0
2.0
7.0
-1.0
2.67
3.0
6.67
16.33
-2.33
-0.67
2.33
-0.33
-3.67
3.67
-2.0
-3.33
-4.0
-3.67
1.33
1.33
2.33
-4.0
14.0
2.0
6.0
5.33
2.33
1.33
4.0
-2.67
3.67
-0.33
4.33
3.0
0.67
-0.33
8.0
2.67
1.33
7.0
5.33
-3.67
2.33
1.33
2.33
0.67

File: 10.0.txt
0.0
50.0
-33.0
-38.0
10.0
0.0
-0.67
-1.33
-1.0
1.0
0.67
-0.67
1.0
-0.33
-0.33
-0.67
0.67
0.0
1.0
2.33
1.67
3.33
3.67
3.67
5.33
-1.33
2.0
-2.0
4.67
4.0
1.33
-1.33
2.67
-1.67
12.0
-3.0
1.33
-3.33
10.0
1.67
4.0
1.33
1.0
2.33
3.67
-1.0
3.0
6.67
-2.67
-1.33
4.0
-6.33
0.33
-3.0
2.67
-1.33
-0.67
2.67
-2.0
11.67
2.33
-1.0
1.0
4.0
4.67
-0.33
4.0
7.33
-1.33
4.0
3.33
-6.67
3.33
2.33
1.0
3.33
2.33
4.33
-1.0
2.33
-1.67
1.67
1.0
0.67
1.67
5.33
-1.33
-1.67
1.0
2.0
0.67
1.0
0.33
-1.33
-2.67
-1.67
-3.67
1.0
0.33
-3.67
0.0
2.0
4.0
-1.0
-0.67
-10.67
4.33
3.0
-0.33
4.0
-2.33
-2.33
-5.0
3.0
1.0
-3.0
-3.67
4.33
2.67
2.0
5.33
3.67
2.0
-0.33
8.33
-1.67
2.0
3.33
-2.0
11.67
2.0
7.67
29.0
65.33
82.67
67.33
19.33
0.33
11.0
1.67
30.33
73.0
101.33
41.0
6.33
9.0
10.0
21.0
44.67
32.67
30.67
54.33
56.0
73.0
63.67
29.33
18.0
15.67
10.0
-5.0
3.33
14.33
9.67
34.0
18.33
11.0
6.33
16.33
5.33
76.0
161.67
174.67
103.67
27.33
30.67
38.67
24.33
39.67
60.33
35.33
26.0
25.0
6.33
8.33
8.67
7.67
17.33
21.67
31.67
15.33
9.67
10.67
7.0
8.33
19.0
20.33
4.67
22.67
-0.33
15.0
13.0
9.67
1.33
1.0
0.67
1.0
10.33
12.33
12.67
-1.0
4.0
8.0
-5.0
7.33
3.67
3.33
15.0
-3.33
12.33
9.0
11.0
9.0
6.33
13.0
2.0
13.33
17.67
10.67
7.67
-0.67
-1.33
-2.0
14.33
11.0
14.0
3.33
5.0
10.33
6.67
6.33
-1.67
3.0
3.33
8.0
-6.33
-3.67
8.0
10.67
20.0
25.0
7.0
8.0
7.67
-1.0
-0.33
4.33
-5.33
3.33
1.33
5.67
4.33
-3.33
-4.0
1.67
6.0
1.33
0.33
4.33
4.33
-1.0
5.0
-2.0
3.0
-2.67
3.33
2.33
-7.0
1.33
3.67
-0.33
8.33
4.0
3.67
-1.33
3.0
-3.33
-3.67
-6.0
-0.67
-0.67
7.33
-3.67
-2.67
0.67

File: 10.5.txt
0.0
60.0
-3.0
-32.0
7.0
1.0
0.33
-1.33
-1.0
1.0
-0.33
-0.67
0.0
2.67
0.67
-0.67
0.67
0.0
-1.0
-0.67
6.67
-0.67
-1.33
2.67
3.33
1.67
0.0
2.0
-5.33
5.0
5.33
-0.33
-6.33
2.33
3.0
11.0
-0.67
-4.33
-1.0
11.67
3.0
5.33
2.0
1.33
0.67
-2.0
3.0
0.67
0.33
0.67
5.0
-1.33
-0.67
1.0
8.67
-0.33
-3.67
0.67
-3.0
7.67
2.33
1.0
2.0
8.0
5.67
-3.33
-2.0
0.33
-3.33
4.0
2.33
-5.67
-1.67
-2.67
1.0
0.33
-4.67
3.33
-2.0
-0.67
2.33
-3.33
-1.0
-0.33
-0.33
2.33
0.67
4.33
-1.0
3.0
-4.33
0.0
1.33
-0.33
0.33
0.33
-7.67
0.0
0.33
-1.67
-3.0
-4.0
6.0
0.0
-1.67
-4.67
0.33
2.0
-7.33
-1.0
5.67
2.67
-4.0
1.0
-4.0
0.0
-9.67
0.33
-2.33
2.0
0.33
8.67
4.0
5.67
-1.67
4.33
0.0
-0.67
1.0
-0.33
3.0
10.67
14.0
60.33
87.67
72.33
44.33
23.33
6.0
6.67
25.33
65.0
50.33
7.0
11.33
17.0
4.0
20.0
26.67
25.67
45.67
80.33
83.0
60.0
44.67
54.33
38.0
16.67
18.0
3.0
10.33
12.33
9.67
20.0
16.33
18.0
19.33
10.33
12.33
39.0
70.67
56.67
42.67
21.33
15.67
26.67
45.33
33.67
31.33
35.33
15.0
17.0
20.33
3.33
11.67
9.67
19.33
29.67
20.67
32.33
35.67
24.67
17.0
7.33
22.0
25.33
6.67
12.67
-1.33
9.0
16.0
4.67
13.33
7.0
16.67
12.0
-0.67
8.33
11.67
10.0
9.0
15.0
1.0
3.33
16.67
10.33
13.0
3.67
13.33
4.0
15.0
5.0
7.33
20.0
7.0
12.33
16.67
10.67
0.67
10.33
1.67
4.0
14.33
-6.0
3.0
9.33
23.0
10.33
3.67
2.33
-1.67
3.0
14.33
-2.0
-3.33
2.33
-1.0
-5.33
7.0
4.0
-1.0
12.0
15.67
-3.0
1.67
3.33
-4.33
8.33
5.33
5.67
-0.67
5.67
-8.0
5.67
5.0
2.33
2.33
1.33
5.33
1.0
-1.0
1.0
3.0
2.33
6.33
6.33
-4.0
0.33
7.67
2.67
4.33
5.0
-2.33
-3.33
-1.0
1.67
-0.67
-2.0
6.33
-0.67
3.33
-2.67
0.33
-2.33

File: 11.0.txt
0.0
82.0
-51.0
-8.0
1.0
1.0
0.33
-1.33
-1.0
0.0
-0.33
-0.67
2.0
-0.33
-0.33
0.33
1.67
-3.0
1.0
0.33
-1.33
-0.67
-0.33
4.67
2.33
5.67
5.0
11.0
3.67
5.0
0.33
8.67
0.67
2.33
3.0
2.0
5.33
-2.33
2.0
7.67
1.0
1.33
2.0
-0.67
3.67
3.0
8.0
2.67
-3.67
0.67
4.0
3.67
-3.67
0.0
2.67
4.67
-2.67
-5.33
-2.0
3.67
1.33
-5.0
-3.0
0.0
-1.33
0.67
7.0
2.33
0.67
7.0
1.33
-6.67
5.33
-0.67
3.0
-3.67
2.33
-0.67
0.0
-0.67
-0.67
0.67
-3.0
3.67
-0.33
3.33
-0.33
2.33
3.0
-1.0
-0.33
-2.0
-2.67
-3.33
0.33
0.33
-0.67
1.0
-6.67
-2.67
-1.0
3.0
0.0
-5.0
-2.67
-5.67
-1.67
5.0
5.67
5.0
-5.33
2.67
-1.0
-3.0
6.0
-7.0
-7.67
6.33
-4.33
0.0
5.33
1.67
-1.0
5.67
1.33
18.33
-1.0
-3.67
8.0
3.67
1.0
2.67
11.0
19.33
63.67
33.33
20.33
5.33
20.0
8.67
31.33
49.0
32.33
14.0
6.33
6.0
1.0
25.0
36.67
14.67
34.67
86.33
100.0
49.0
36.67
26.33
23.0
9.67
17.0
6.0
8.33
6.33
3.67
13.0
24.33
10.0
13.33
20.33
34.33
113.0
317.67
339.67
131.67
37.33
15.67
23.67
38.33
46.67
53.33
46.33
28.0
24.0
32.33
2.33
11.67
30.67
17.33
30.67
50.67
49.33
43.67
13.67
35.0
26.33
26.0
40.33
16.67
17.67
9.67
19.0
13.0
3.67
20.33
3.0
14.67
-8.0
13.33
9.33
9.67
-6.0
2.0
8.0
0.0
7.33
11.67
-1.67
8.0
2.67
3.33
8.0
9.0
7.0
14.33
6.0
7.0
13.33
3.67
6.67
3.67
4.33
3.67
6.0
14.33
-1.0
0.0
12.33
4.0
7.33
3.67
7.33
5.33
4.0
11.33
7.0
-0.33
5.33
1.0
-5.33
14.0
6.0
10.0
5.0
10.67
9.0
6.67
10.33
0.67
-3.67
-1.67
9.67
-5.67
5.67
4.0
1.67
4.0
4.33
7.33
-0.67
3.33
-3.0
13.0
1.0
-3.0
1.33
4.33
-4.67
0.0
2.33
2.67
-1.33
3.33
5.0
4.67
-1.33
0.0
3.67
5.33
-1.0
1.33
-0.67
4.33
1.33
-0.67
1.67

File: 11.5.txt
0.0
36.0
-21.0
-27.0
-2.0
-3.0
0.33
-1.33
-1.0
0.0
-0.33
-0.67
0.0
0.67
-0.33
0.33
-0.33
-4.0
0.0
-1.67
-0.33
-1.67
-0.33
-2.33
1.33
-2.33
-1.0
3.0
-1.33
9.0
1.33
-4.33
4.67
3.33
3.0
6.0
4.33
-0.33
1.0
4.67
3.0
-2.67
-4.0
3.33
2.67
2.0
-2.0
-1.33
2.33
-2.33
6.0
-2.33
-2.67
0.0
4.67
2.67
-0.67
1.67
-2.0
7.67
-0.67
-2.0
1.0
-2.0
-3.33
1.67
3.0
6.33
0.67
3.0
0.33
1.33
-2.67
2.33
-2.0
1.33
-0.67
2.33
2.0
0.33
2.33
-1.33
1.0
2.67
3.67
1.33
-2.33
4.33
-3.0
-2.0
1.67
3.0
-3.67
-2.33
1.33
0.33
-3.67
3.0
-4.67
3.33
3.0
3.0
0.0
2.0
0.33
-5.67
2.33
-3.0
6.67
3.0
3.67
-3.33
2.0
-7.0
-3.0
4.0
-6.67
-3.67
2.67
8.0
1.33
1.67
0.0
4.67
-3.67
2.33
-2.0
-3.67
17.0
5.67
-3.0
13.67
10.0
17.33
38.67
41.33
47.33
14.33
10.0
2.67
16.33
30.0
18.33
13.0
5.33
17.0
8.0
8.0
16.67
27.67
33.67
34.33
21.0
15.0
18.67
33.33
22.0
8.67
10.0
0.0
3.33
13.33
7.67
17.0
8.33
19.0
-0.67
31.33
26.33
59.0
88.67
91.67
37.67
36.33
12.67
16.67
33.33
44.67
84.33
76.33
28.0
37.0
18.33
5.33
7.67
5.67
10.33
20.67
14.67
23.33
16.67
20.67
7.0
23.33
29.0
34.33
20.67
14.67
4.67
10.0
17.0
-11.33
5.33
13.0
19.67
4.0
6.33
6.33
12.67
6.0
-5.0
-1.0
3.0
8.33
9.67
11.33
-1.0
-5.33
19.33
11.0
16.0
9.0
-13.67
9.0
-6.0
8.33
3.67
18.67
11.67
6.33
14.67
10.0
-2.67
3.0
-4.0
7.33
3.0
1.33
7.67
-4.67
-3.67
6.0
12.33
1.0
-7.33
7.33
2.0
-4.33
12.0
17.0
-4.0
-4.0
4.67
3.0
4.67
6.33
-4.33
2.33
6.33
2.67
4.33
1.67
1.0
-0.33
1.0
3.33
4.33
-1.67
12.33
-3.0
16.0
-1.0
0.0
7.33
3.33
6.33
-4.0
0.33
1.67
-0.33
2.33
1.0
3.67
-2.33
0.0
1.67
1.33
-2.0
-0.67
5.33
-0.67
-1.67
-0.67
-0.33

File: 11.25.txt
0.0
58.0
-58.0
-9.0
1.0
2.0
0.33
-1.33
-1.0
0.0
-0.33
-0.67
0.0
1.67
1.67
1.33
0.67
1.0
0.0
-0.67
-5.33
-1.67
1.67
4.67
3.33
-3.33
-2.0
11.0
5.67
3.0
-0.67
1.67
-0.33
3.33
6.0
8.0
5.33
2.67
-2.0
5.67
7.0
4.33
5.0
-0.67
-1.33
-2.0
-2.0
-2.33
-2.67
-6.33
3.0
0.67
3.33
-3.0
5.67
-1.33
0.33
2.67
-2.0
5.67
-4.67
1.0
3.0
4.0
1.67
2.67
5.0
6.33
-1.33
6.0
4.33
-4.67
-0.67
2.33
1.0
1.33
-3.67
6.33
-1.0
-0.67
0.33
0.67
1.0
0.67
4.67
2.33
2.67
0.33
1.0
0.0
-0.33
-5.0
1.33
3.67
-1.67
-1.67
-4.67
0.0
0.33
-2.67
-1.0
0.0
1.0
4.0
-3.67
-7.67
-0.67
-1.0
-0.33
6.0
0.67
1.67
-3.0
-3.0
8.0
2.0
-3.67
4.33
0.67
1.0
2.33
-0.33
8.0
1.67
7.33
2.33
7.0
13.33
9.0
10.67
4.0
10.67
7.0
39.33
65.67
19.33
11.33
1.33
11.0
11.67
23.33
25.0
35.33
10.0
7.33
5.0
11.0
11.0
22.67
19.67
33.67
58.33
63.0
51.0
27.67
18.33
14.0
11.67
11.0
6.0
10.33
18.33
19.67
22.0
12.33
5.0
15.33
12.33
33.33
154.0
271.67
270.67
98.67
37.33
24.67
33.67
40.33
50.67
66.33
53.33
36.0
39.0
10.33
14.33
9.67
11.67
25.33
11.67
23.67
19.33
17.67
12.67
19.0
15.33
13.0
31.33
20.67
18.67
6.67
9.0
9.0
2.67
4.33
20.0
5.67
0.0
0.33
0.33
21.67
8.0
4.0
12.0
-9.0
-1.67
-0.33
7.33
7.0
13.67
7.33
16.0
3.0
6.0
6.33
11.0
6.0
13.33
5.67
21.67
8.67
11.33
3.67
3.0
8.33
-7.0
1.0
0.33
13.0
1.33
5.67
2.33
4.33
5.0
13.33
7.0
4.67
-3.67
1.0
3.67
11.0
4.0
1.0
3.0
4.67
5.0
6.67
4.33
-5.33
1.33
0.33
3.67
9.33
6.67
-4.0
3.67
4.0
1.33
4.33
11.33
5.33
-1.0
2.0
3.0
0.0
6.33
3.33
-3.67
1.0
3.33
1.67
4.67
7.33
4.0
2.67
-4.33
-4.0
5.67
3.33
0.0
-0.67
0.33
5.33
-3.67
-1.67
-3.33