Folder: EDX-Concrete-Analysis/EDX Back Ups and Old Files/Spectra copy 3.3.23/Samples/Low pH SF Ref

Note: README.md
This is Anthony's repository for doing all sorts of Energy Dispersive X-ray Analysis on concrete samples.

File: 9.0.txt
0.0
-58.67
-77.0
-19.0
3.33
-1.67
-0.33
1.0
-0.67
-0.67
-0.33
0.0
-0.67
0.0
1.0
-0.33
1.0
0.67
2.33
-1.0
4.33
1.0
0.67
4.67
4.67
2.67
-1.33
8.33
6.33
-0.33
-2.33
8.0
4.67
0.67
5.0
11.33
5.0
5.33
7.67
8.67
0.33
5.33
-7.0
-1.0
6.0
0.67
5.33
1.0
4.0
4.33
8.0
3.33
9.33
-1.67
5.33
3.67
1.67
-0.33
-0.67
0.0
4.67
5.33
0.67
-2.0
0.67
9.33
2.33
-2.33
9.67
-6.0
4.33
-2.67
0.0
0.67
4.67
-2.0
-1.67
1.0
2.67
5.67
7.33
-3.33
5.33
7.0
-4.33
6.0
4.67
1.67
1.0
4.33
-1.0
-1.33
1.0
0.33
-3.67
1.67
-1.67
1.33
4.33
-0.33
-3.67
-4.33
4.0
1.0
-3.67
-0.33
-4.67
-8.0
2.67
-1.67
10.67
-0.33
-2.0
6.0
-3.0
5.67
10.33
-0.67
6.0
-0.67
5.0
3.33
11.33
3.67
0.33
3.33
4.33
4.0
8.33
0.67
17.33
15.0
6.0
14.0
11.67
14.33
10.0
17.33
13.0
10.33
31.67
64.0
35.33
22.67
16.0
13.33
8.67
11.67
14.33
15.67
21.33
39.67
24.0
22.0
19.67
37.0
52.0
39.67
19.33
3.67
-1.67
8.67
23.0
20.0
39.0
9.0
4.67
18.33
0.0
56.0
113.67
105.33
47.67
25.0
31.33
24.33
25.0
33.33
46.0
27.0
19.67
20.33
17.0
16.0
-0.67
6.67
3.67
19.33
10.0
27.0
21.0
35.0
10.0
20.67
10.33
35.33
23.33
22.33
16.0
6.0
2.33
15.33
-2.33
26.33
14.33
11.67
14.33
6.33
16.0
1.67
5.33
14.0
-0.33
14.0
18.0
4.67
5.0
8.0
18.0
11.0
15.0
2.67
18.67
32.0
6.0
5.67
20.33
20.0
19.33
15.67
-0.67
16.33
14.33
11.33
13.0
2.33
8.33
3.67
4.33
6.67
2.67
10.67
3.0
-0.67
2.0
6.33
-5.33
-7.67
1.67
1.0
6.67
-0.67
1.67
-8.0
9.67
-1.67
-4.33
10.67
-1.67
-3.67
-4.0
-0.67
8.33
-0.67
2.0
9.67
6.33
-2.33
7.33
-1.0
1.0
-3.33
4.67
0.67
1.0
3.0
4.33
-2.67
5.33
3.33
-1.67
-1.67
0.33
4.67
-1.67
3.67
3.0
0.67
7.33
-0.67
-1.33
1.0
-1.33
8.0

File: 9.75.txt
0.0
13.33
24.0
0.0
2.33
0.33
-0.33
1.0
-0.67
-0.67
-0.33
0.0
-0.67
1.0
1.0
0.67
-2.0
3.67
0.33
1.0
1.33
4.0
6.67
2.67
1.67
2.67
6.67
6.33
0.33
0.67
-1.33
5.0
2.67
-1.33
5.0
3.33
1.0
3.33
4.67
3.67
-2.67
1.33
0.0
-1.0
2.0
1.67
-2.67
5.0
4.0
2.33
-1.0
4.33
3.33
4.33
0.33
-0.33
7.67
8.67
1.33
-1.0
4.67
8.33
9.67
2.0
-2.33
-0.67
1.33
-0.33
2.67
-2.0
2.33
2.33
-1.0
0.67
1.67
2.0
4.33
0.0
1.67
1.67
-1.67
1.67
1.33
0.0
-1.33
3.0
-0.33
-0.33
1.0
6.33
4.0
-0.33
-4.0
-2.67
5.33
2.67
1.33
-1.67
4.33
0.67
1.33
0.67
6.0
1.0
-2.67
3.67
0.33
0.0
1.67
1.33
-0.33
-2.33
-3.0
-1.0
4.0
-3.33
5.33
9.33
0.0
4.33
6.0
7.33
-0.67
-0.33
3.33
3.33
1.33
2.0
11.33
9.67
8.33
9.0
5.0
21.0
33.67
23.33
24.0
9.33
1.0
19.33
32.67
45.0
28.33
22.67
10.0
10.33
15.67
16.67
21.33
8.67
8.33
13.67
12.0
38.0
42.67
70.0
39.0
19.67
15.33
16.67
7.33
24.67
17.0
12.0
19.0
13.0
15.67
10.33
19.0
65.0
87.67
104.33
57.67
39.0
37.33
36.33
27.0
31.33
37.0
27.0
29.67
40.33
18.0
16.0
10.33
7.67
8.67
8.33
7.0
20.0
27.0
14.0
34.0
20.67
33.33
16.33
14.33
7.33
10.0
14.0
19.33
28.33
6.67
10.33
23.33
9.67
10.33
20.33
41.0
14.67
14.33
8.0
2.67
13.0
7.0
-3.33
-2.0
14.0
21.0
4.0
-9.0
2.67
-0.33
19.0
13.0
18.67
14.33
2.0
1.33
-1.33
-2.67
17.33
9.33
15.33
3.0
3.33
1.33
6.67
8.33
9.67
0.67
14.67
10.0
0.33
1.0
4.33
7.67
-4.67
3.67
1.0
12.67
11.33
2.67
8.0
-3.33
3.33
0.67
8.67
0.33
-1.67
2.0
1.33
5.33
-0.67
-1.0
3.67
4.33
6.67
7.33
4.0
3.0
0.67
-4.33
7.67
3.0
-1.0
2.33
-2.67
6.33
0.33
-2.67
-4.67
-2.67
0.67
1.33
-2.33
5.0
-1.33
12.33
2.33
5.67
4.0
-0.33
1.0

File: 10.5.txt
0.0
-45.67
-63.0
-34.0
-6.67
-1.67
-0.33
1.0
-0.67
-0.67
-0.33
0.0
0.33
0.0
0.0
3.67
1.0
5.67
-2.67
6.0
-2.67
1.0
3.67
0.67
11.67
0.67
4.67
2.33
3.33
-0.33
1.67
0.0
0.67
1.67
2.0
6.33
5.0
3.33
3.67
10.67
3.33
5.33
-2.0
9.0
-1.0
-2.33
1.33
-2.0
1.0
2.33
6.0
3.33
3.33
1.33
3.33
5.67
-3.33
2.67
-2.67
4.0
1.67
-2.67
-2.33
4.0
-0.33
-2.67
-2.67
-3.33
3.67
-6.0
3.33
-0.67
4.0
2.67
4.67
1.0
0.33
0.0
1.67
0.67
1.33
1.67
0.33
1.0
-0.33
5.0
2.67
-2.33
5.0
-3.67
4.0
7.67
-4.0
1.33
-3.67
1.67
0.33
-0.67
-2.67
-2.33
0.33
-0.33
4.0
2.0
0.33
-1.33
-5.67
-1.0
0.67
5.33
-0.33
-0.33
-4.0
0.0
2.0
-1.33
14.33
2.33
9.0
3.33
2.0
0.33
6.33
-2.33
0.33
4.33
1.33
4.0
4.33
5.67
8.33
4.0
11.0
10.0
25.67
55.33
74.0
32.33
9.0
14.33
43.67
36.0
36.33
23.67
13.0
11.33
16.67
23.67
31.33
15.67
18.33
18.67
28.0
29.0
32.67
32.0
42.0
27.67
23.33
33.67
25.33
28.67
27.0
32.0
45.0
40.0
33.67
11.33
42.0
109.0
149.67
116.33
103.67
44.0
32.33
27.33
37.0
45.33
52.0
33.0
34.67
26.33
14.0
2.0
15.33
7.67
15.67
20.33
23.0
55.0
47.0
27.0
43.0
27.67
17.33
18.33
27.33
13.33
5.0
22.0
6.33
9.33
7.67
2.33
15.33
6.67
-0.67
16.33
14.0
10.67
8.33
13.0
9.67
8.0
8.0
-3.33
6.0
11.0
28.0
6.0
-4.0
0.67
16.67
18.0
15.0
12.67
14.33
11.0
13.33
17.67
-3.67
8.33
9.33
9.33
0.0
2.33
3.33
7.67
-5.67
6.67
-0.33
4.67
15.0
5.33
-3.0
4.33
3.67
6.33
-0.33
4.0
6.67
9.33
-0.33
1.0
4.67
4.33
4.67
8.67
-1.67
-3.67
4.0
2.33
0.33
2.33
5.0
2.67
8.33
1.67
-5.67
3.0
6.0
10.67
-3.33
8.67
6.0
1.0
6.33
-6.67
7.33
5.33
-2.67
6.33
6.33
6.67
6.33
-0.33
-3.0
0.67
6.33
-2.67
3.67
-1.0
0.67
1.0

File: 11.0.txt
0.0
4.33
14.0
-14.0
5.33
-2.67
-0.33
0.0
0.33
0.33
-0.33
1.0
0.33
1.0
1.0
1.67
0.0
-1.33
1.33
2.0
3.33
-2.0
0.67
4.67
10.67
3.67
5.67
1.33
1.33
0.67
6.67
1.0
2.67
3.67
3.0
10.33
3.0
6.33
1.67
-1.33
1.33
2.33
-1.0
3.0
2.0
-0.33
3.33
2.0
4.0
3.33
7.0
3.33
3.33
-1.67
-0.67
-1.33
-3.33
6.67
0.33
5.0
-0.33
1.33
-2.33
3.0
-0.33
3.33
0.33
5.67
8.67
1.0
4.33
0.33
6.0
-0.33
6.67
1.0
-0.67
3.0
0.67
0.67
1.33
-2.33
4.33
2.0
-0.33
1.0
0.67
-0.33
-6.0
3.33
0.0
3.67
-2.0
0.33
-0.67
2.67
-0.67
6.33
4.33
2.67
3.33
-3.33
3.0
4.0
2.33
0.67
-4.67
1.0
3.67
-1.67
-2.33
2.67
2.0
-3.0
0.0
2.67
1.33
12.33
4.0
9.33
4.0
6.33
10.33
12.67
1.33
3.33
22.33
4.0
6.33
3.67
17.33
13.0
17.0
70.0
107.67
88.33
40.0
17.33
17.0
13.33
37.67
31.0
41.33
52.67
36.0
18.33
22.67
19.67
16.33
20.67
19.33
31.67
24.0
27.0
25.67
44.0
30.0
29.67
17.33
19.67
25.33
23.67
23.0
49.0
55.0
47.0
34.67
20.33
21.0
60.0
112.67
207.33
243.67
103.0
36.33
36.33
34.0
55.33
105.0
160.0
111.67
55.33
26.0
15.0
7.33
15.67
2.67
19.33
29.0
46.0
66.0
48.0
21.0
33.67
26.33
35.33
17.33
15.33
2.0
5.0
7.33
7.33
19.67
11.33
18.33
6.67
12.33
11.33
30.0
9.67
9.33
13.0
8.67
23.0
13.0
6.67
15.0
-5.0
6.0
6.0
1.0
-3.33
8.67
10.0
19.0
7.67
7.33
14.0
2.33
0.67
4.33
13.33
9.33
7.33
2.0
9.33
13.33
1.67
0.33
10.67
5.67
9.67
7.0
-1.67
-5.0
-6.67
5.67
-4.67
-1.33
4.0
5.67
0.33
-0.33
9.0
6.67
-6.67
9.67
4.67
1.33
-4.67
-1.0
0.33
6.33
3.33
6.0
4.67
7.33
6.67
0.33
10.0
8.0
4.67
-0.33
10.67
13.0
5.0
6.33
1.33
8.33
6.33
6.33
0.33
-2.67
-1.33
3.33
4.67
2.0
0.67
6.33
-1.67
0.67
4.0
-6.33
0.0

File: 11.5.txt
0.0
-22.67
-15.0
-4.0
-3.67
4.33
-0.33
0.0
-0.67
0.33
0.67
1.0
-0.67
2.0
1.0
-0.33
-3.0
2.67
2.33
-2.0
-0.67
0.0
0.67
-3.33
4.67
4.67
0.67
1.33
4.33
-0.33
7.67
3.0
9.67
8.67
-2.0
5.33
-1.0
0.33
6.67
2.67
4.33
4.33
-3.0
-5.0
0.0
5.67
3.33
-1.0
6.0
7.33
4.0
3.33
5.33
4.33
2.33
-0.33
1.67
7.67
4.33
1.0
2.67
-2.67
-6.33
4.0
-2.33
2.33
-1.67
-2.33
0.67
0.0
3.33
-1.67
4.0
0.67
2.67
-2.0
2.33
-2.0
5.67
-0.33
-1.67
-4.33
7.33
0.0
1.67
2.0
-0.33
-0.33
1.0
2.33
-3.0
6.67
-1.0
-2.67
-2.67
1.67
-3.67
8.33
3.33
-3.33
0.33
-3.33
8.0
1.0
0.33
-2.33
-3.67
-5.0
0.67
-0.67
5.67
2.67
-5.0
0.0
-4.0
-2.33
-4.67
6.33
13.0
9.33
3.0
5.33
13.33
-1.33
6.33
8.33
8.33
6.0
5.33
8.67
7.33
9.0
20.0
40.0
86.67
41.33
30.0
11.33
2.0
16.33
31.67
26.0
31.33
41.67
27.0
13.33
6.67
13.67
13.33
15.67
20.33
34.67
41.0
31.0
56.67
57.0
42.0
22.67
28.33
19.67
9.33
13.67
13.0
29.0
35.0
60.0
51.67
23.33
39.0
34.0
84.67
115.33
115.67
86.0
41.33
22.33
30.0
92.33
115.0
160.0
83.67
38.33
13.0
11.0
4.33
7.67
6.67
12.33
4.0
17.0
25.0
26.0
15.0
32.67
25.33
22.33
27.33
3.33
14.0
11.0
9.33
10.33
7.67
9.33
15.33
24.67
21.33
8.33
12.0
2.67
12.33
8.0
1.67
-1.0
6.0
-0.33
17.0
12.0
10.0
-1.0
-12.0
-3.33
24.67
2.0
17.0
18.67
21.33
9.0
5.33
6.67
20.33
3.33
5.33
-0.67
-5.0
2.33
8.33
-2.33
-4.67
-6.33
-1.33
7.67
11.0
11.33
2.0
6.33
4.67
-7.67
5.67
6.0
3.67
2.33
2.67
11.0
-1.33
6.33
1.67
7.67
8.33
6.33
5.0
5.33
7.33
5.33
10.0
4.67
-0.67
3.67
2.33
0.0
4.0
5.67
2.67
9.67
5.0
5.0
4.33
-3.67
0.33
5.33
-1.67
-3.67
-0.67
0.67
0.33
1.67
0.0
3.67
3.33
-1.67
-0.33
-2.0
-7.33
4.0

File: 12.0.txt
0.0
79.33
-22.0
4.0
-6.67
-1.67
-0.33
2.0
-0.67
-0.67
-0.33
0.0
-0.67
1.0
2.0
2.67
-2.0
-1.33
-1.67
1.0
-0.67
-1.0
-0.33
2.67
-2.33
-0.33
0.67
0.33
-5.67
3.67
-1.33
7.0
7.67
0.67
1.0
11.33
-5.0
1.33
3.67
3.67
4.33
5.33
0.0
-1.0
2.0
-4.33
-0.67
-2.0
2.0
2.33
3.0
1.33
4.33
6.33
-0.67
1.67
-2.33
0.67
3.33
1.0
2.67
0.33
-1.33
7.0
1.67
-0.67
-0.67
-2.33
10.67
3.0
-0.67
-1.67
6.0
1.67
2.67
-1.0
-0.67
-2.0
-0.33
0.67
0.33
-2.33
0.33
-2.0
0.67
2.0
-0.33
6.67
-2.0
1.33
1.0
1.67
0.0
0.33
1.33
-2.33
-1.67
-0.67
0.33
-0.33
-0.67
1.67
-3.0
-2.0
-2.67
2.67
-6.67
-7.0
1.67
1.33
-3.33
-3.33
-7.0
3.0
-4.0
-5.33
1.33
6.33
8.0
3.33
4.0
3.33
4.33
-0.33
0.33
-1.67
-5.67
2.0
4.33
3.67
4.33
7.0
-1.0
11.0
1.67
11.33
5.0
1.33
-5.0
-2.67
-5.33
4.0
8.33
9.67
-5.0
9.33
8.67
7.67
10.33
6.67
8.33
15.67
12.0
6.0
6.67
8.0
9.0
2.67
6.33
4.67
2.33
8.67
5.0
-2.0
0.0
-2.0
-0.33
3.33
-4.0
3.0
16.67
27.33
6.67
11.0
14.33
7.33
7.0
25.33
39.0
17.0
5.67
11.33
2.0
-2.0
2.33
5.67
1.67
9.33
4.0
2.0
19.0
5.0
3.0
11.67
-1.67
1.33
7.33
1.33
16.0
1.0
-1.67
4.33
5.67
10.33
8.33
8.67
4.33
13.33
14.0
-4.33
5.33
2.0
3.67
-4.0
8.0
-3.33
1.0
2.0
-2.0
-1.0
-8.0
-1.33
14.67
6.0
11.0
0.67
-1.67
0.0
-5.67
1.67
-1.67
4.33
-4.67
-7.67
-3.0
11.33
0.33
-2.33
-4.67
-0.33
-2.33
4.67
3.0
1.33
-3.0
-4.67
7.67
0.33
3.67
0.0
3.67
8.33
-6.33
0.0
0.67
5.33
1.67
-0.33
-8.67
-3.67
0.0
-4.67
11.33
4.33
-1.0
-0.33
8.33
-3.33
-1.67
2.0
4.0
-5.33
4.67
2.67
7.0
-1.0
4.33
-2.67
1.33
-2.67
-4.67
-3.67
-0.67
3.67
1.33
-0.33
2.0
-0.33
2.33
-3.67
3.67
2.0
-4.33
-2.0

File: 12.25.txt
0.0
-17.67
-17.0
-2.0
9.33
0.33
-0.33
0.0
-0.67
0.33
0.67
0.0
1.33
1.0
1.0
1.67
-1.0
1.67
1.33
3.0
2.33
-1.0
-0.33
-2.33
1.67
0.67
3.67
-0.67
5.33
0.67
-2.33
-2.0
-0.33
-0.33
-2.0
-0.67
2.0
5.33
-1.33
2.67
0.33
0.33
-3.0
1.0
1.0
0.67
1.33
1.0
4.0
-2.67
1.0
2.33
1.33
1.33
1.33
-0.33
-2.33
-0.33
3.33
-1.0
5.67
0.33
1.67
3.0
4.67
0.33
3.33
-1.33
0.67
-6.0
4.33
-2.67
4.0
-0.33
-0.33
0.0
-0.67
7.0
-1.33
6.67
0.33
-4.33
4.33
-3.0
-1.33
2.0
-1.33
-0.33
-1.0
-0.67
2.0
2.67
2.0
-0.67
-2.67
0.67
-1.67
4.33
0.33
-1.33
3.33
-1.33
2.0
-1.0
-1.67
3.67
-0.67
-2.0
2.67
-0.67
2.67
-0.33
0.0
-3.0
-1.0
-3.33
2.33
-2.67
5.0
-0.67
2.0
1.33
4.33
-0.33
0.33
-0.67
0.33
2.0
3.33
4.67
5.33
3.0
0.0
0.0
0.67
-1.67
5.0
-5.67
-1.0
4.33
-1.33
0.0
-2.67
5.67
-2.0
7.33
0.67
3.67
-0.67
1.67
-4.67
2.67
1.0
-3.0
6.67
4.0
3.0
1.67
-3.67
3.67
-4.67
0.67
2.0
5.0
12.0
-4.0
-0.33
3.33
-1.0
6.0
-0.33
5.33
0.67
-1.0
2.33
7.33
-2.0
-2.67
5.0
3.0
-5.33
2.33
1.0
-8.0
-6.67
-2.33
0.67
3.33
-4.0
8.0
0.0
14.0
-8.0
0.67
2.33
9.33
-2.67
-5.67
-3.0
3.0
1.33
1.33
4.67
-6.67
5.33
1.67
-6.67
-1.67
13.0
0.67
1.33
-5.0
3.67
12.0
3.0
-10.33
2.0
-7.0
25.0
-2.0
-7.0
0.67
12.67
-5.0
7.0
12.67
11.33
6.0
7.33
4.67
-3.67
2.33
1.33
-0.67
0.0
-1.67
5.33
2.67
-9.67
-2.33
-8.33
12.67
11.0
0.33
-8.0
-2.67
1.67
-2.67
-4.33
0.0
3.67
0.33
-5.33
5.0
0.67
-4.67
-5.33
1.67
-4.67
-0.67
-6.0
-1.67
1.33
0.33
7.0
3.67
9.33
1.67
-3.67
-2.0
1.0
-5.33
-1.33
3.67
1.0
7.0
1.33
-0.67
3.33
-0.67
-3.67
-4.67
-4.67
-0.33
2.33
-3.33
1.0
-3.33
5.33
1.33
2.67
1.0
-1.33
0.0