Folder: EDX-Concrete-Analysis/EDX Back Ups and Old Files/Spectra copy 3.3.23/Samples/Low pH SF 60C 4d

Note: README.md
This is Anthony's repository for doing all sorts of Energy Dispersive X-ray Analysis on concrete samples.

File: 6.5.txt
0.0
5.67
-10.67
-12.0
3.0
-2.33
0.67
-0.67
0.67
-0.67
-1.67
-0.33
0.67
0.33
1.0
0.33
-0.33
1.0
5.0
3.33
-1.33
-3.0
4.33
-3.33
2.33
2.33
1.0
-4.33
2.0
5.33
3.33
1.67
11.0
-0.33
4.0
0.33
4.33
5.67
9.67
2.33
2.67
3.33
5.0
-5.67
6.0
1.33
-2.0
2.0
10.33
3.67
3.67
0.33
1.33
0.0
3.67
-0.33
4.33
6.0
3.67
4.0
-1.0
-0.33
-2.0
-5.0
3.0
1.67
1.67
3.0
-2.33
0.0
2.0
3.33
-1.67
-2.0
2.67
0.33
-2.0
-0.67
0.0
-3.0
-1.33
1.33
1.33
-3.33
0.67
4.0
-1.33
3.33
0.67
1.0
-1.33
-1.0
-4.0
1.67
0.0
5.67
1.33
-2.67
-2.33
-1.0
8.33
-1.67
-1.33
-3.33
-1.33
-4.67
-8.33
-1.33
0.0
-3.33
0.0
2.33
-5.33
-1.67
-1.67
-3.33
5.67
-7.33
-0.33
-12.0
-2.0
-1.67
-3.67
-3.67
-2.0
-1.0
0.0
3.33
5.0
-2.67
-2.0
-2.33
9.0
10.33
23.33
48.0
23.67
1.67
-11.0
1.67
10.67
17.67
5.0
-4.33
0.33
-1.0
-0.67
-0.67
-5.33
3.33
8.33
12.33
19.33
37.67
19.67
32.33
14.0
3.67
9.67
4.33
6.0
6.33
0.67
6.67
0.0
7.67
9.33
2.67
21.0
45.0
98.33
95.0
72.33
61.0
29.33
47.67
20.0
15.67
37.33
21.0
15.0
15.67
-1.0
-0.67
4.0
10.0
7.0
6.33
10.33
16.33
23.33
13.33
2.67
12.67
20.33
10.33
1.67
20.33
5.0
1.67
13.0
-2.67
2.33
6.33
4.0
10.0
5.67
-1.0
1.0
-3.67
1.67
4.67
7.33
3.33
-0.67
-2.0
4.0
1.67
9.33
-4.0
-1.33
12.33
7.67
19.67
14.0
-1.33
-6.67
12.33
14.33
11.0
5.67
-5.67
17.67
17.67
8.0
11.0
5.0
7.33
0.0
8.33
12.67
7.67
-7.33
7.0
15.0
8.67
-4.0
1.33
8.0
-0.67
8.0
12.0
1.0
3.67
-3.33
-2.0
2.33
4.67
0.67
2.0
1.33
7.0
1.33
-6.0
0.33
2.67
2.67
4.0
5.0
6.0
0.67
1.67
-7.0
3.0
5.0
-1.33
-2.67
-1.67
6.33
2.67
-0.67
6.0
1.67
6.0
-2.0
-2.0
3.33
4.0
11.0
1.67
-1.33
6.0
4.67
4.0

File: 7.5.txt
0.0
17.67
-21.67
-15.0
-2.0
0.67
1.67
-0.67
-0.33
0.33
-1.67
-0.33
0.67
-0.67
1.0
4.33
-1.33
1.0
1.0
1.33
-1.33
3.0
5.33
6.67
-0.67
1.33
-4.0
-6.33
6.0
5.33
-2.67
-1.33
2.0
6.67
-1.0
1.33
2.33
-2.33
-0.33
5.33
3.67
0.33
2.0
-1.67
0.0
-4.67
3.0
-4.0
1.33
-1.33
6.67
3.33
2.33
1.0
-0.33
2.67
-0.67
11.0
-2.33
-1.0
0.0
1.67
-3.0
1.0
1.0
5.67
-3.33
-3.0
4.67
-1.0
0.0
-1.67
4.33
-1.0
0.67
0.33
0.0
5.33
-2.0
-1.0
-3.33
4.33
0.33
-2.33
0.67
-1.0
3.67
0.33
0.67
-2.0
-1.33
3.0
-1.0
0.67
3.0
1.67
-0.67
-1.67
-0.33
2.0
-0.67
-2.67
1.67
-4.33
-4.33
-0.67
-7.33
-2.33
-2.0
-1.33
-3.0
1.33
-1.33
-3.67
-11.67
-5.33
-6.33
-2.33
-5.33
-12.0
0.0
0.33
-6.67
-8.67
-3.0
-6.0
-2.0
-3.67
-1.0
-2.67
8.0
5.67
3.0
43.33
81.33
35.0
3.67
-0.33
0.0
-1.33
9.67
19.67
7.0
-4.33
8.33
16.0
11.33
6.33
-5.33
15.33
19.33
29.33
32.33
28.67
15.67
19.33
30.0
13.67
6.67
9.33
-5.0
2.33
-0.33
15.67
-2.0
16.67
15.33
10.67
35.0
28.0
59.33
46.0
32.33
32.0
37.33
12.67
25.0
41.67
23.33
34.0
12.0
4.67
7.0
3.33
5.0
11.0
-1.0
8.33
24.33
11.33
31.33
33.33
24.67
9.67
28.33
17.33
15.67
21.33
15.0
23.67
15.0
-6.67
7.33
6.33
16.0
5.0
13.67
1.0
4.0
-4.67
12.67
10.67
-5.67
5.33
9.33
9.0
-6.0
0.67
-1.67
5.0
-6.33
13.33
8.67
24.67
10.0
6.67
5.33
14.33
10.33
10.0
19.67
1.33
15.67
6.67
8.0
7.0
8.0
-9.67
2.0
-2.67
6.67
3.67
9.67
8.0
6.0
6.67
-2.0
2.33
9.0
0.33
-2.0
2.0
-3.0
-2.33
3.67
-6.0
-2.67
1.67
3.67
8.0
2.33
10.0
4.33
-1.0
-1.67
-2.33
-1.33
-1.0
5.0
0.0
6.67
5.67
7.0
-8.0
1.0
-2.33
1.33
0.33
6.33
4.67
6.33
2.0
5.67
5.0
-1.0
1.0
7.33
10.0
14.0
2.67
1.67
1.0
6.67
-2.0

File: 7.25.txt
0.0
18.67
14.33
15.0
7.0
2.67
0.67
-0.67
-0.33
0.33
-1.67
0.67
-0.33
-0.67
2.0
-1.67
-0.33
1.0
1.0
2.33
0.67
4.0
8.33
5.67
4.33
0.33
5.0
-1.33
0.0
-4.67
4.33
8.67
9.0
-0.33
-3.0
4.33
-1.67
2.67
9.67
3.33
1.67
4.33
2.0
1.33
9.0
2.33
5.0
-1.0
-3.67
1.67
2.67
3.33
2.33
2.0
0.67
0.67
3.33
11.0
2.67
1.0
-3.0
7.67
2.0
-1.0
-3.0
-1.33
-2.33
4.0
0.67
3.0
5.0
3.33
1.33
0.0
-0.33
4.33
0.0
2.33
-1.0
-3.0
-0.33
-3.67
-0.67
0.67
-2.33
1.0
2.67
2.33
3.67
1.0
0.67
1.0
-2.0
-1.33
2.0
-2.33
4.33
0.33
4.67
-1.0
0.33
-2.67
-2.33
-5.33
-0.33
-0.67
-7.33
-1.33
-2.0
2.67
0.0
1.33
-6.33
-6.67
-8.67
-5.33
-0.33
1.67
5.67
-11.0
-5.0
-0.67
-5.67
-1.67
-1.0
-4.0
-2.0
-0.67
7.0
-0.67
5.0
-5.33
8.0
52.33
70.33
31.0
3.67
-2.33
-9.0
9.67
3.67
18.67
19.0
-6.33
9.33
12.0
22.33
7.33
1.67
16.33
25.33
38.33
13.33
16.67
17.67
5.33
24.0
13.67
12.67
0.33
-4.0
6.33
5.67
17.67
10.0
8.67
4.33
6.67
16.0
27.0
27.33
37.0
37.33
26.0
22.33
17.67
35.0
28.67
30.33
18.0
20.0
11.67
7.0
8.33
5.0
-3.0
7.0
10.33
10.33
11.33
14.33
11.33
16.67
11.67
23.33
19.33
9.67
0.33
5.0
8.67
12.0
8.33
13.33
8.33
5.0
5.0
6.67
3.0
6.0
1.33
-2.33
4.67
2.33
-0.67
8.33
9.0
-2.0
2.67
-4.67
5.0
-5.33
5.33
-2.33
10.67
8.0
8.67
6.33
-2.67
4.33
7.0
11.67
-3.67
9.67
19.67
7.0
-7.0
6.0
0.33
4.0
-0.67
2.67
3.67
-1.33
4.0
9.0
-1.33
-5.0
2.33
2.0
8.33
0.0
3.0
10.0
9.67
0.67
2.0
-0.67
-1.33
10.67
4.0
-0.67
8.0
7.33
-9.0
6.33
7.67
13.67
11.0
2.0
1.0
4.67
7.67
1.0
1.0
-2.0
2.67
-1.67
3.33
6.33
-0.33
0.33
2.0
2.67
3.0
2.0
3.0
2.33
8.0
1.0
5.67
0.67
3.0
11.67
-1.0

File: 8.75.txt
0.0
-18.33
-18.67
17.0
14.0
-1.33
-0.33
-0.67
-0.33
-0.67
-1.67
-0.33
-0.33
0.33
2.0
-0.67
1.67
3.0
2.0
0.33
0.67
1.0
5.33
-1.33
3.33
1.33
5.0
-2.33
7.0
0.33
-1.67
3.67
5.0
-0.33
0.0
3.33
4.33
-1.33
0.67
-1.67
2.67
3.33
-4.0
-4.67
0.0
-6.67
-6.0
0.0
9.33
0.67
2.67
-1.67
-2.67
-3.0
0.67
-2.33
2.33
0.0
6.67
9.0
7.0
2.67
0.0
0.0
-5.0
-1.33
-1.33
-5.0
1.67
4.0
-2.0
3.33
-2.67
2.0
0.67
-0.67
-1.0
3.33
0.0
1.0
-1.33
0.33
1.33
-2.33
-2.33
2.0
4.67
3.33
-2.33
6.0
0.67
-1.0
-4.0
-4.33
-2.0
-2.33
-0.67
-3.67
-4.33
-2.0
0.33
-5.67
-3.33
-0.33
-0.33
-1.67
-6.33
-6.33
-3.0
1.67
-4.0
1.33
-0.33
-9.67
-12.67
-4.33
-2.33
-6.33
-3.33
-8.0
0.0
-0.67
-3.67
-1.67
5.0
2.0
-6.0
4.33
-2.0
8.33
7.0
-0.33
8.0
7.33
14.33
9.0
9.67
-0.33
-10.0
-1.33
9.67
15.67
9.0
-1.33
4.33
5.0
2.33
0.33
0.67
5.33
13.33
11.33
30.33
24.67
19.67
24.33
12.0
11.67
4.67
9.33
-7.0
6.33
7.67
21.67
31.0
61.67
31.33
9.67
18.0
17.0
48.33
46.0
38.33
18.0
30.33
22.67
38.0
30.67
30.33
31.0
27.0
24.67
3.0
13.33
2.0
7.0
2.0
12.33
5.33
31.33
19.33
17.33
14.67
22.67
11.33
28.33
14.67
15.33
13.0
10.67
9.0
10.33
10.33
12.33
5.0
3.0
11.67
-3.0
4.0
9.33
6.67
19.67
-0.67
3.33
3.33
14.0
-1.0
2.67
16.33
0.0
0.67
16.33
6.67
7.67
8.0
17.67
-10.67
10.33
7.33
6.0
12.67
0.33
16.67
-1.33
10.0
2.0
4.0
5.33
7.0
-5.67
0.67
-0.33
7.67
9.0
9.0
-3.33
-2.0
-5.67
-5.0
-4.67
7.0
4.0
2.0
-2.33
10.67
-6.0
-5.67
8.67
2.67
4.0
-1.67
-2.0
-6.67
0.0
2.33
3.67
3.67
12.0
-2.0
0.0
3.67
3.67
-2.0
-5.0
3.0
4.67
-1.67
3.33
7.33
5.67
-2.67
2.0
1.67
-1.0
3.0
-2.0
3.33
5.0
10.0
0.67
0.67
-3.0
1.67
1.0

File: 9.25.txt
0.0
-27.33
37.33
27.0
-1.0
3.67
-1.33
-0.67
-0.33
-0.67
-0.67
-0.33
0.67
0.33
1.0
1.33
0.67
0.0
5.0
0.33
0.67
4.0
1.33
1.67
1.33
1.33
-3.0
-0.33
5.0
-0.67
4.33
4.67
-2.0
-2.33
0.0
1.33
4.33
4.67
0.67
1.33
2.67
10.33
-1.0
2.33
8.0
-10.67
0.0
2.0
7.33
-4.33
1.67
6.33
-3.67
1.0
1.67
5.67
-2.67
8.0
1.67
5.0
-2.0
-0.33
-4.0
3.0
0.0
-1.33
-4.33
-5.0
2.67
-6.0
-2.0
-0.67
-5.67
0.0
-1.33
-1.67
2.0
4.33
-2.0
1.0
-5.33
3.33
-1.67
-2.33
-3.33
-2.0
-1.33
4.33
-1.33
0.0
-2.33
2.0
-3.0
-0.33
2.0
-3.33
-1.67
-5.67
1.67
-2.0
3.33
0.33
-2.33
-3.33
-2.33
0.33
-13.33
-2.33
-4.0
-0.33
-6.0
-0.67
-3.33
-7.67
-7.67
-4.33
-2.33
-7.33
5.67
-4.0
-4.0
-0.67
5.33
-7.67
-2.0
-5.0
7.0
3.33
8.0
-0.67
-3.0
-4.33
5.0
10.33
22.33
15.0
4.67
-3.33
-4.0
4.67
20.67
34.67
37.0
8.67
7.33
-4.0
5.33
-10.67
4.67
12.33
16.33
24.33
38.33
24.67
19.67
1.33
19.0
16.67
8.67
17.33
9.0
3.33
6.67
12.67
26.0
30.67
18.33
9.67
26.0
37.0
60.33
47.0
28.33
31.0
18.33
25.67
32.0
58.67
52.33
65.0
60.0
35.67
23.0
17.33
3.0
-2.0
2.0
20.33
23.33
17.33
13.33
16.33
13.67
8.67
21.33
20.33
9.67
11.33
15.0
3.67
10.0
14.33
9.33
10.33
5.0
12.0
23.67
8.0
-1.0
8.33
7.67
15.67
1.33
9.33
2.33
0.0
0.0
4.67
-0.67
1.0
-0.33
16.33
7.67
15.67
15.0
21.67
-0.67
19.33
6.33
5.0
6.67
-4.67
9.67
13.67
-10.0
3.0
3.0
2.33
1.0
0.33
8.67
5.67
4.67
6.0
-2.0
9.67
-6.0
5.33
5.0
1.33
0.0
0.0
13.0
-0.33
-4.33
0.0
4.33
-0.33
-0.33
9.0
-1.67
1.0
-1.67
6.0
3.33
0.67
1.67
6.0
2.0
3.0
2.67
-4.33
2.0
-10.0
-1.0
3.67
-0.67
3.33
6.33
5.67
3.33
7.0
6.67
2.0
5.0
2.0
-2.67
5.0
3.0
3.67
1.67
1.0
3.67
1.0

File: 10.0.txt
0.0
-54.33
-35.67
-7.0
-4.0
1.67
0.67
-0.67
-0.33
0.33
-0.67
-0.33
0.67
-0.67
1.0
-1.67
1.67
0.0
4.0
1.33
-1.33
1.0
4.33
3.67
-1.67
3.33
2.0
2.67
3.0
-2.67
-0.67
7.67
-1.0
1.67
9.0
5.33
-2.67
0.67
3.67
10.33
-3.33
3.33
-3.0
9.33
-3.0
-2.67
8.0
-7.0
6.33
-2.33
2.67
-1.67
0.33
1.0
-0.33
1.67
-1.67
-1.0
-1.33
3.0
2.0
3.67
-3.0
0.0
-2.0
-1.33
-1.33
-1.0
-5.33
3.0
0.0
4.33
-0.67
5.0
1.67
0.33
-1.0
3.33
0.0
0.0
-2.33
1.33
-1.67
-1.33
-0.33
3.0
2.67
-0.67
3.67
1.0
1.67
1.0
-6.0
3.67
-4.0
-4.33
-2.67
-2.67
-1.33
-5.0
-1.67
-1.67
-2.33
-6.33
-2.33
3.33
-10.33
10.67
-6.0
-6.33
1.0
-0.67
-2.33
-0.67
-7.67
-1.33
-4.33
-6.33
0.67
-5.0
5.0
9.33
4.33
-7.67
-2.0
-2.0
-2.0
6.33
3.0
-3.67
-2.0
-2.33
9.0
19.33
67.33
67.0
8.67
-5.33
-5.0
6.67
18.67
38.67
52.0
13.67
6.33
-2.0
3.33
-1.67
-5.33
7.33
3.33
8.33
19.33
5.67
24.67
18.33
12.0
17.67
3.67
8.33
4.0
8.33
5.67
5.67
10.0
20.67
11.33
9.67
23.0
38.0
67.33
82.0
60.33
36.0
15.33
16.67
21.0
37.67
32.33
32.0
24.0
27.67
14.0
27.33
4.0
7.0
8.0
18.33
7.33
20.33
27.33
23.33
23.67
32.67
16.33
16.33
15.67
11.33
-4.0
11.67
19.0
3.33
13.33
11.33
3.0
-4.0
2.67
3.0
6.0
2.33
10.67
16.67
-3.67
10.33
2.33
1.0
1.0
6.67
-1.67
4.0
-0.33
5.33
6.67
17.67
4.0
5.67
14.33
11.33
13.33
20.0
5.67
-0.67
3.67
2.67
5.0
9.0
1.0
2.33
-4.0
16.33
-7.33
11.67
8.67
-2.0
1.0
2.67
-5.0
-7.67
7.0
9.33
-7.0
3.0
3.0
7.67
4.67
3.0
4.33
-0.33
1.67
9.0
-4.67
-2.0
2.33
4.0
-2.67
2.67
2.67
3.0
3.0
1.0
3.67
-8.33
-4.0
-9.0
5.0
-1.33
-2.67
-2.67
-1.67
4.67
-2.67
-3.0
4.67
3.0
0.0
3.0
-3.67
6.0
1.0
-3.33
3.67
8.0
-2.33
1.0