Folder: EDX-Concrete-Analysis/EDX Back Ups and Old Files/Spectra copy 3.3.23/Samples/Low pH SF 60C 2d

Note: README.md
This is Anthony's repository for doing all sorts of Energy Dispersive X-ray Analysis on concrete samples.

File: 6.0.txt
0.0
124.67
31.33
9.33
3.33
0.0
-1.0
0.67
-0.67
1.67
0.33
0.33
1.67
-0.67
1.33
-0.33
0.33
-0.33
2.0
2.67
0.67
8.67
-0.33
1.33
1.33
7.33
5.0
7.67
8.0
0.33
4.67
-1.0
3.0
0.0
-1.67
0.67
4.67
9.33
4.33
0.33
-1.33
10.67
-3.67
9.33
5.67
2.0
8.33
3.0
7.0
3.0
-1.67
-1.67
-2.0
7.0
6.0
2.67
11.0
3.67
4.33
8.0
-2.67
2.67
8.67
-0.67
-1.33
2.67
1.33
3.0
5.33
2.67
-0.67
2.33
0.33
2.67
-1.67
2.67
2.33
2.67
8.67
3.0
-2.33
1.67
-3.67
1.0
3.33
-1.0
4.33
4.33
-0.67
2.67
-1.33
0.33
-4.67
-2.0
-5.67
0.0
-1.0
-3.33
-3.33
-4.67
-3.33
4.33
-2.0
-1.67
0.67
2.0
-7.33
-3.33
-4.33
-4.33
-7.67
4.0
-3.0
-3.0
-1.33
-6.67
-1.33
-2.67
-6.67
4.67
-6.33
0.67
-5.67
-2.67
-0.33
-6.33
-2.67
-9.67
-2.67
-4.67
5.67
8.67
10.67
13.0
15.0
6.67
1.67
0.67
6.33
-5.0
-3.33
17.33
24.67
9.0
8.67
-4.0
0.33
4.33
12.67
9.0
7.67
4.33
4.33
18.33
9.33
13.0
24.67
11.33
10.0
2.33
3.67
13.33
14.0
20.67
9.33
16.0
11.0
15.0
6.67
21.33
39.0
57.33
35.67
30.33
16.33
14.67
30.0
31.67
43.67
44.67
30.0
26.0
10.33
9.33
14.67
14.0
12.0
6.33
5.33
25.67
16.0
22.0
12.67
4.67
17.0
14.67
16.33
11.33
1.67
5.67
7.0
9.67
8.0
13.33
10.33
4.0
8.33
11.33
0.33
12.33
7.67
7.67
2.33
12.33
7.0
5.0
11.67
-6.0
-0.33
5.67
4.0
9.33
13.67
9.0
6.67
8.67
4.0
3.33
14.67
3.0
14.0
12.67
4.33
-3.0
8.67
13.33
-5.67
-1.0
5.0
11.0
-9.0
1.0
13.33
-3.67
3.33
0.0
-9.0
-3.0
0.0
5.67
7.0
6.67
-4.0
0.0
2.0
3.0
-1.0
3.67
0.33
-3.67
3.0
6.33
-0.33
11.67
-3.67
0.0
2.33
1.33
-1.33
16.33
4.33
2.33
-1.0
8.33
-1.33
5.67
10.0
-7.67
4.0
0.67
-0.33
12.67
9.0
0.67
3.0
2.67
1.0
0.67
6.67
-4.0
1.33
0.33
5.67
5.33

File: 7.0.txt
0.0
104.67
10.33
-11.67
6.33
1.0
-1.0
-0.33
-0.67
0.67
0.33
-0.67
-0.33
0.33
-0.67
0.67
-0.67
-1.33
0.0
2.67
-3.33
3.67
-4.33
7.33
3.33
5.33
2.0
-5.33
2.0
-2.67
1.67
1.0
6.0
0.0
-3.67
5.67
-0.33
-2.67
6.33
1.33
-2.33
7.67
-5.67
-0.67
-2.33
4.0
4.33
-1.0
3.0
5.0
5.33
-3.67
-3.0
-2.0
1.0
0.67
3.0
2.67
4.33
1.0
-1.67
2.67
2.67
-0.67
-2.33
3.67
-1.67
-1.0
4.33
1.67
4.33
8.33
-2.67
3.67
3.33
-0.33
-0.67
6.67
1.67
1.0
7.67
-0.33
1.33
2.0
2.33
0.0
4.33
1.33
-3.67
0.67
3.67
-4.67
1.33
-3.0
-2.67
1.0
-1.0
-0.33
-3.33
-2.67
-2.33
-0.67
1.0
1.33
-2.33
-1.0
-10.33
-4.33
-4.33
-1.33
-10.67
-1.0
-6.0
1.0
3.67
-1.67
-1.33
-5.67
-6.67
1.67
-1.33
-5.33
-7.67
-0.67
-2.33
-5.33
-5.67
-6.67
-1.67
-2.67
1.67
3.67
4.67
35.0
56.0
61.67
8.67
-0.33
5.33
10.0
10.67
35.33
16.67
6.0
11.67
5.0
11.33
11.33
6.67
11.0
-4.33
9.33
-0.67
33.33
24.33
32.0
9.67
14.33
7.0
6.33
14.67
5.33
8.0
19.67
14.33
13.0
11.0
15.0
11.67
28.33
52.0
55.33
63.67
24.33
21.33
14.67
39.0
37.67
57.67
45.67
41.0
38.0
16.33
-2.67
17.67
6.0
7.0
24.33
7.33
9.67
22.0
24.0
13.67
-2.33
12.0
14.67
19.33
15.33
26.67
8.67
17.0
4.67
8.0
10.33
15.33
1.0
-0.67
8.33
-1.67
9.33
0.67
2.67
9.33
9.33
3.0
1.0
3.67
5.0
7.67
16.67
14.0
3.33
7.67
0.0
14.67
12.67
13.0
0.33
9.67
14.0
3.0
3.67
3.33
0.0
-2.33
7.33
-9.67
0.0
9.0
7.0
4.0
4.0
16.33
-8.67
1.33
-1.0
-2.0
1.0
-4.0
6.67
1.0
12.67
-3.0
0.0
-4.0
7.0
-2.0
3.67
3.33
0.33
5.0
1.33
3.67
4.67
1.33
3.0
2.33
1.33
3.67
3.33
3.33
7.33
-3.0
9.33
3.67
-0.33
-2.0
-4.67
1.0
6.67
-4.33
2.67
0.0
4.67
4.0
-1.33
5.0
4.67
0.67
-1.0
-0.67
6.33
6.67
-2.67

File: 8.5.txt
0.0
142.67
22.33
34.33
7.33
-1.0
-1.0
0.67
1.33
0.67
-0.67
-0.67
-0.33
0.33
-0.67
0.67
1.33
0.67
-1.0
3.67
1.67
0.67
-4.33
4.33
8.33
8.33
1.0
3.67
3.0
4.33
1.67
4.0
3.0
3.0
0.33
5.67
2.67
9.33
0.33
2.33
0.67
8.67
0.33
1.33
1.67
5.0
5.33
-2.0
9.0
8.0
-2.67
-0.67
1.0
-3.0
0.0
3.67
1.0
2.67
7.33
-1.0
-0.67
5.67
4.67
-3.67
0.67
-0.33
-4.67
-3.0
3.33
2.67
-3.67
1.33
-1.67
0.67
-1.67
4.67
1.33
1.67
2.67
-1.0
-3.33
-0.33
-0.67
2.0
1.33
-2.0
-0.67
-0.67
-2.67
0.67
0.67
-0.67
-2.67
-2.0
-2.67
-3.0
1.0
-7.33
-4.33
-6.67
-5.33
-1.67
-1.0
-0.67
2.67
-1.0
-8.33
1.67
-0.33
6.67
-5.67
-8.0
-5.0
-4.0
4.67
-3.67
0.67
-2.67
-6.67
3.67
2.67
-5.33
-3.67
0.33
-11.33
-7.33
-1.67
-0.67
-5.67
7.33
1.67
-0.33
7.67
17.0
92.0
97.67
15.67
5.67
12.33
9.0
30.67
48.33
23.67
17.0
11.67
4.0
1.33
14.33
9.67
8.0
9.67
17.33
20.33
14.33
28.33
19.0
18.67
21.33
14.0
18.33
8.67
9.33
8.0
14.67
11.33
11.0
8.0
11.0
6.67
36.33
41.0
49.33
27.67
16.33
22.33
9.67
23.0
64.67
105.67
101.67
47.0
36.0
10.33
12.33
6.67
8.0
18.0
16.33
11.33
18.67
13.0
40.0
14.67
11.67
21.0
18.67
15.33
32.33
9.67
2.67
17.0
23.67
5.0
9.33
0.33
19.0
10.33
7.33
-3.67
3.33
-7.33
-4.33
4.33
6.33
11.0
0.0
-7.33
9.0
1.67
11.67
0.0
14.33
8.67
23.0
24.67
17.67
10.0
13.33
8.67
15.0
14.0
6.67
-8.67
14.0
-1.33
4.33
7.33
10.0
-4.0
4.0
8.0
-2.0
3.33
6.33
-3.67
6.0
6.0
-9.0
1.0
4.67
-5.0
7.67
-8.0
13.0
1.0
-3.0
-3.0
10.67
-0.67
1.33
9.0
6.33
-5.33
-0.33
5.33
-6.0
7.33
6.33
-1.33
-1.67
1.33
-2.67
-3.0
1.33
1.67
1.67
0.0
-5.67
-1.0
-4.33
-3.33
6.67
3.0
0.67
0.0
3.67
-1.0
6.67
-1.33
-2.0
2.33
6.33
-2.33
2.33

File: 9.0.txt
0.0
-13.33
53.33
1.33
-2.67
1.0
0.0
0.67
-0.67
-0.33
-0.67
-0.67
-0.33
0.33
-0.67
-0.33
-0.67
0.67
0.0
3.67
-1.33
-1.33
-5.33
-1.67
0.33
6.33
1.0
-3.33
5.0
-2.67
1.67
3.0
0.0
9.0
5.33
1.67
0.67
2.33
-0.67
-1.67
-0.33
1.67
-5.67
5.33
7.67
6.0
5.33
8.0
1.0
1.0
-2.67
-2.67
2.0
1.0
5.0
1.67
2.0
2.67
4.33
-3.0
0.33
-0.33
-2.33
2.33
-0.33
2.67
2.33
0.0
1.33
0.67
6.33
3.33
-0.67
8.67
0.33
-0.33
-3.67
-1.33
3.67
5.0
-2.33
-3.33
3.33
-1.0
6.33
-5.0
2.33
-0.67
-5.67
5.67
0.67
1.33
-0.67
0.0
-6.67
0.0
-3.0
-3.33
-0.33
-0.67
-4.33
-0.67
-6.0
-5.67
-4.33
-5.0
-11.33
2.67
-2.33
-3.33
-3.67
-2.0
-4.0
-1.0
-1.33
-4.67
-2.33
-2.67
2.33
-5.33
0.67
3.67
-1.67
-2.67
-4.33
-5.33
-2.67
-1.67
-3.67
-1.67
4.67
0.67
7.67
37.0
93.0
114.67
26.67
0.67
-3.67
8.0
12.67
29.33
39.67
46.0
2.67
10.0
-2.67
13.33
9.67
9.0
14.67
25.33
27.33
26.33
23.33
4.0
8.67
19.33
12.0
5.33
2.67
-0.67
8.0
15.67
12.33
3.0
12.0
14.0
7.67
39.33
51.0
80.33
44.67
21.33
9.33
23.67
26.0
55.67
107.67
111.67
28.0
14.0
13.33
5.33
15.67
6.0
5.0
22.33
18.33
38.67
34.0
30.0
15.67
9.67
22.0
11.67
24.33
20.33
7.67
4.67
-2.0
18.67
6.0
2.33
3.33
14.0
13.33
3.33
2.33
4.33
6.67
-2.33
10.33
14.33
10.0
3.0
3.67
2.0
10.67
4.67
10.0
1.33
12.67
26.0
42.67
27.67
19.0
20.33
13.67
4.0
16.0
9.67
1.33
14.0
-2.33
5.33
-2.67
4.0
1.0
9.0
7.0
-7.0
7.33
-0.67
10.33
10.0
7.0
0.0
-9.0
12.67
5.0
3.67
-6.0
8.0
9.0
-2.0
-2.0
2.67
-2.67
1.33
4.0
-7.67
-10.33
4.67
-3.67
0.0
9.33
4.33
0.67
0.33
3.33
-1.67
-4.0
6.33
-2.33
7.67
-4.0
-4.67
3.0
0.67
-3.33
3.67
2.0
4.67
-3.0
0.67
3.0
-2.33
8.67
-4.0
-1.67
6.33
3.67
-3.67

File: 10.0.txt
0.0
27.67
41.33
-5.67
18.33
0.0
0.0
-0.33
-0.67
-0.33
-0.67
-0.67
-0.33
-0.67
0.33
-0.33
0.33
-0.33
-2.0
0.67
0.67
1.67
-5.33
-1.67
-3.67
-2.67
2.0
-1.33
2.0
4.33
-0.33
1.0
7.0
3.0
-8.67
-2.33
4.67
-2.67
3.33
4.33
0.67
4.67
-5.67
-2.67
0.67
1.0
3.33
5.0
-3.0
1.0
-2.67
-6.67
-1.0
5.0
-1.0
3.67
3.0
4.67
-0.67
3.0
-1.67
2.67
-2.33
1.33
3.67
-0.33
0.33
0.0
1.33
-0.33
1.33
1.33
2.33
1.67
0.33
-0.33
1.33
1.67
-2.33
-2.0
-1.33
-5.33
0.33
1.0
1.33
-1.0
3.33
-0.67
-1.67
1.67
-3.33
-2.67
0.33
4.0
-6.67
2.0
-1.0
-0.33
1.67
-0.67
-2.33
-0.67
-3.0
-2.67
-0.33
-4.0
-10.33
0.67
-6.33
-6.33
-4.67
-1.0
-6.0
-2.0
-1.33
9.33
-1.33
-0.67
-4.67
2.67
-4.33
1.67
-5.67
-5.67
-5.33
-2.33
4.33
-1.67
-4.67
-0.67
2.67
8.67
22.67
35.0
22.0
20.67
4.67
1.67
9.33
14.0
22.67
15.33
19.67
16.0
8.67
7.0
8.33
8.33
23.67
6.0
20.67
54.33
33.33
30.33
18.33
23.0
28.67
39.33
5.0
6.33
4.67
1.33
10.0
16.67
13.33
25.0
16.0
11.0
20.67
21.33
54.0
74.33
48.67
19.33
14.33
15.67
28.0
45.67
82.67
93.67
45.0
37.0
14.33
5.33
7.67
-1.0
11.0
19.33
25.33
33.67
24.0
21.0
27.67
24.67
24.0
24.67
17.33
13.33
8.67
4.67
8.0
14.67
19.0
13.33
1.33
9.0
0.33
12.33
1.33
-0.67
1.67
-4.33
3.33
5.33
14.0
-14.0
2.67
13.0
-7.33
9.67
21.0
11.33
15.67
9.0
27.67
16.67
7.0
12.33
9.67
11.0
8.0
9.67
0.33
3.0
-1.33
-2.67
4.33
3.0
1.0
3.0
2.0
4.0
7.33
-5.67
-4.67
5.0
-1.0
-11.0
1.0
-1.33
2.0
15.67
-1.0
1.0
-1.0
5.0
-10.0
7.67
-1.67
9.33
5.0
3.33
3.67
-5.33
5.33
0.0
9.33
13.33
0.67
4.33
2.33
6.33
0.0
3.33
10.67
-3.33
1.0
-7.67
-3.0
-4.33
-5.33
4.67
-3.0
-0.33
3.0
2.67
-1.0
-0.33
-0.33
0.0
2.33
4.33
7.67
0.33

File: 10.25.txt
0.0
-40.33
31.33
-10.67
7.33
2.0
-1.0
-0.33
-0.67
0.67
-0.67
0.33
-0.33
-0.67
-1.67
-0.33
4.33
0.67
-1.0
0.67
-0.33
2.67
-1.33
-3.67
0.33
-0.67
1.0
3.67
3.0
1.33
0.67
0.0
3.0
-2.0
4.33
4.67
5.67
0.33
0.33
7.33
2.67
-1.33
0.33
4.33
2.67
8.0
2.33
-3.0
-3.0
2.0
-2.67
-2.67
-1.0
2.0
6.0
-0.33
0.0
3.67
2.33
6.0
-3.67
5.67
-0.33
-0.67
3.67
1.67
3.33
0.0
4.33
2.67
0.33
1.33
-3.67
2.67
-0.67
1.67
-3.67
3.67
2.67
1.0
0.67
1.67
8.33
1.0
3.33
-1.0
2.33
2.33
-1.67
0.67
-0.33
-2.67
-2.67
-4.0
-4.67
-2.0
-1.0
-2.33
-4.33
-7.67
-5.33
-1.67
-2.0
-1.67
-4.33
2.0
-11.33
0.67
-1.33
-4.33
1.33
-2.0
-1.0
1.0
1.67
3.33
-1.33
1.33
-0.67
-7.33
-0.33
-2.33
-0.67
2.33
0.67
0.67
-0.67
-5.67
-1.67
2.33
-0.33
3.67
17.67
26.0
24.0
33.67
22.67
2.67
7.33
17.0
21.67
29.33
37.67
12.0
0.67
18.0
8.33
17.33
12.67
19.0
19.67
34.33
32.33
33.33
22.33
15.0
9.67
20.33
11.0
11.33
4.67
3.33
9.0
22.67
18.33
1.0
7.0
11.0
21.67
68.33
134.0
116.33
60.67
31.33
32.33
38.67
41.0
60.67
72.67
80.67
41.0
17.0
13.33
-2.67
14.67
18.0
24.0
30.33
16.33
29.67
15.0
36.0
42.67
7.67
14.0
22.67
17.33
21.33
14.67
11.67
15.0
18.67
10.0
12.33
-5.67
14.0
8.33
17.33
9.33
4.33
-2.33
5.67
15.33
14.33
-1.0
-5.0
15.67
6.0
23.67
11.67
5.0
-2.67
18.67
12.0
12.67
2.67
7.0
8.33
12.67
13.0
8.0
8.67
1.33
6.0
-1.33
-5.67
-0.67
2.0
2.0
-1.0
-5.0
-2.0
8.33
3.33
-5.67
8.0
-5.0
2.0
0.0
8.67
7.0
15.67
1.0
-2.0
0.0
6.0
-4.0
13.67
-3.67
25.33
5.0
9.33
-5.33
1.67
-5.67
-1.0
-1.67
3.33
-5.33
3.33
2.33
8.33
-3.0
10.33
-6.33
6.67
-1.0
-5.67
11.0
-2.33
-3.33
-3.33
1.0
-1.33
7.0
4.67
-1.0
1.67
1.67
0.0
3.33
2.33
0.67
3.33

File: 11.0.txt
0.0
3.67
-72.67
-19.67
2.33
-1.0
-1.0
0.67
-0.67
-0.33
-0.67
0.33
-0.33
-0.67
-0.67
0.67
-0.67
-0.33
-2.0
-2.33
3.67
-2.33
-0.33
7.33
0.33
1.33
-6.0
1.67
7.0
-4.67
-2.33
4.0
6.0
1.0
4.33
1.67
0.67
4.33
-3.67
4.33
2.67
2.67
-4.67
3.33
1.67
3.0
0.33
2.0
-1.0
1.0
-0.67
0.33
6.0
2.0
4.0
5.67
5.0
-2.33
2.33
2.0
-0.67
3.67
-2.33
1.33
-2.33
1.67
4.33
0.0
10.33
0.67
4.33
-1.67
-2.67
1.67
3.33
-2.33
-4.67
-0.33
2.67
2.0
1.67
2.67
-1.67
1.0
-0.67
-3.0
1.33
1.33
-8.67
-0.33
-0.33
-2.67
-2.67
-3.0
-3.67
1.0
1.0
2.67
-4.33
-3.67
1.67
2.33
-2.0
-0.67
-0.33
-6.0
-12.33
-1.33
-0.33
-3.33
-8.67
-3.0
-1.0
-5.0
-2.33
-0.67
-6.33
4.33
-1.67
-3.33
-2.33
1.67
1.33
-1.67
2.67
-7.33
-3.67
-2.67
1.33
2.33
0.67
12.67
9.67
53.0
42.0
12.67
1.67
9.67
8.33
11.0
33.67
72.33
43.67
8.0
12.67
11.0
9.33
19.33
5.67
22.0
23.67
65.33
71.33
52.33
22.33
28.0
29.67
24.33
17.0
8.33
6.67
11.33
30.0
35.67
27.33
17.0
18.0
15.0
20.67
80.33
161.0
177.33
114.67
19.33
43.33
56.67
85.0
75.67
68.67
41.67
32.0
23.0
11.33
2.33
3.67
4.0
13.0
20.33
23.33
31.67
38.0
34.0
24.67
17.67
15.0
25.67
32.33
19.33
11.67
7.67
12.0
6.67
12.0
2.33
5.33
11.0
1.33
13.33
1.33
13.33
-0.33
13.67
3.33
18.33
11.0
2.0
3.67
-6.0
6.67
12.67
5.0
-1.67
3.67
-12.0
3.67
10.67
5.0
2.33
18.67
7.0
4.0
10.67
9.33
2.0
0.67
-9.67
12.33
-4.0
5.0
2.0
-17.0
2.0
5.33
3.33
6.33
6.0
5.0
-12.0
7.0
0.67
-2.0
2.67
4.0
-4.0
2.0
2.0
0.0
0.67
2.33
8.33
9.0
1.33
0.67
-4.33
1.33
-2.0
2.33
4.33
4.67
-1.67
2.33
-6.67
1.0
7.33
-4.33
0.67
-7.0
3.33
-5.0
2.67
-2.33
0.67
3.0
4.67
-5.0
3.67
6.0
0.67
3.67
-4.0
8.33
-0.67
-3.33
0.33

File: background.txt
0.0
1823.33
1099.67
252.67
33.67
4.0
1.0
0.33
0.67
0.33
0.67
0.67
0.33
0.67
1.67
1.33
2.67
3.33
6.0
4.33
7.33
8.33
13.33
9.67
11.67
10.67
13.0
11.33
9.0
10.67
10.33
10.0
9.0
11.0
12.67
8.33
11.33
8.67
11.67
10.67
10.33
7.33
14.67
9.67
9.33
8.0
7.67
9.0
11.0
8.0
10.67
10.67
10.0
8.0
8.0
7.33
7.0
7.33
6.67
9.0
8.67
6.33
6.33
7.67
7.33
6.33
6.67
6.0
4.67
4.33
5.67
4.67
7.67
3.33
5.67
5.33
7.67
4.33
4.33
5.0
6.33
5.33
6.67
4.0
3.67
6.0
3.67
4.67
8.67
4.33
5.33
6.67
5.67
8.0
10.67
6.0
6.0
7.33
10.33
10.67
10.33
6.67
10.0
8.67
10.33
10.0
17.33
9.33
9.33
10.33
15.67
13.0
13.0
13.0
11.33
11.67
15.33
13.67
15.67
14.33
14.33
13.33
16.67
16.67
17.33
17.33
15.67
19.67
19.67
16.67
15.33
16.33
16.33
20.0
21.0
18.33
18.33
15.33
14.67
15.0
18.33
14.67
17.33
19.0
15.33
16.0
17.67
13.67
16.33
16.0
19.33
19.67
19.67
12.67
18.67
18.0
17.33
10.67
16.0
11.67
16.33
14.67
14.0
14.33
30.67
19.0
15.0
14.0
28.33
46.67
28.0
18.67
14.33
16.67
10.67
17.33
16.0
18.33
14.33
13.33
18.0
15.0
17.67
23.67
14.33
20.0
20.0
17.67
24.67
25.33
31.0
30.0
32.33
28.33
27.0
22.33
27.67
21.67
25.33
23.33
24.0
23.33
24.0
26.67
32.67
25.0
27.67
26.67
30.67
30.67
33.33
35.33
32.67
26.67
31.0
35.0
32.33
32.0
32.33
29.33
35.0
38.67
32.33
38.0
37.33
31.33
34.0
33.67
28.33
31.0
29.0
30.33
34.67
29.0
29.33
32.67
35.67
26.0
30.0
30.0
28.0
27.0
22.67
29.67
23.67
23.0
28.0
29.0
24.0
20.33
23.0
17.33
25.0
19.0
22.0
15.0
22.0
14.33
19.67
13.67
12.0
14.67
17.33
16.33
15.67
16.0
13.67
12.67
16.33
11.67
13.67
13.67
13.0
9.67
11.33
10.33
14.0
14.67
11.0
10.33
12.33
10.33
9.0
10.33
9.0
8.33
8.0
8.33
8.33
10.0
6.67
8.67
6.33
9.67