Folder: EDX-Concrete-Analysis/EDX Back Ups and Old Files/Spectra copy 3.3.23/Samples/Low pH SF 25C 2d

Note: README.md
This is Anthony's repository for doing all sorts of Energy Dispersive X-ray Analysis on concrete samples.

File: 7.25.txt
0.0
-62.67
46.33
-0.67
-0.67
0.0
-0.67
-0.33
1.0
0.0
1.0
0.33
-1.0
1.67
2.33
1.67
2.67
-2.0
4.33
-2.33
2.33
5.33
7.67
8.67
6.33
2.33
1.67
2.0
8.0
7.0
9.0
0.67
0.33
5.0
1.67
5.0
5.67
-0.33
7.0
8.0
-1.0
1.0
-3.33
0.33
-1.0
4.67
11.67
5.33
0.33
3.33
-3.67
6.0
3.67
-2.33
1.33
0.67
-0.33
2.0
1.0
1.33
-4.0
-2.33
-1.67
-2.0
2.0
4.0
5.0
2.33
1.67
0.0
4.33
6.33
-2.67
-2.67
-0.67
3.0
0.67
8.67
7.33
2.0
9.0
1.0
2.0
6.33
4.33
2.67
-7.0
2.0
0.33
1.67
-1.33
-2.33
-2.0
0.67
2.0
4.33
0.33
3.33
2.33
-0.67
-2.0
-2.0
0.67
0.67
0.67
3.33
-6.0
-0.33
4.0
8.67
-0.33
0.33
2.67
0.0
2.67
4.0
-2.0
0.0
0.67
-3.33
1.67
2.67
12.0
11.33
3.33
8.33
9.67
7.67
14.67
10.0
6.0
3.67
9.0
10.0
20.67
11.33
20.33
24.67
3.67
-0.67
12.0
9.67
13.0
14.0
1.33
14.0
10.33
14.67
13.0
41.0
38.33
41.33
45.67
50.0
27.0
23.33
21.33
33.0
19.0
9.0
12.0
3.67
11.0
7.67
19.33
24.67
11.0
9.0
36.0
71.33
100.33
105.67
46.33
32.33
27.0
11.67
39.0
60.0
69.0
72.0
70.0
25.33
28.67
24.67
4.67
7.67
13.67
24.33
11.67
34.33
18.33
28.67
17.33
22.33
15.0
9.0
18.67
6.33
13.67
-0.67
4.33
14.33
8.0
8.0
7.33
1.33
12.67
18.67
11.0
5.67
4.67
5.67
3.67
10.0
4.33
9.0
8.67
9.67
-6.33
9.33
8.67
8.67
6.67
1.67
20.0
15.67
0.33
9.67
12.33
9.33
5.0
12.33
-4.67
20.33
11.0
4.33
20.0
-3.67
9.33
5.33
3.33
3.0
5.33
7.33
10.0
5.33
14.0
-1.33
-8.33
6.67
-5.0
8.0
0.33
1.0
5.33
-1.0
8.33
6.33
2.67
-0.67
0.0
0.33
3.0
13.33
2.33
3.0
-1.67
11.67
-3.0
-3.33
-2.67
1.33
9.0
5.67
3.0
7.33
-4.33
2.67
2.0
0.67
0.33
2.0
3.0
0.67
4.0
4.0
-1.67
3.0
3.0
2.67
-0.33
-2.0
2.0
2.0

File: 7.75.txt
0.0
-56.67
17.33
17.33
3.33
-2.0
1.33
-0.33
0.0
0.0
0.0
0.33
-1.0
-0.33
0.33
0.67
1.67
1.0
1.33
-3.33
2.33
9.33
4.67
3.67
3.33
0.33
3.67
4.0
0.0
6.0
1.0
6.67
4.33
-2.0
-3.33
-1.0
7.67
0.67
5.0
5.0
4.0
3.0
-1.33
-0.67
4.0
8.67
5.67
1.33
9.33
1.33
5.33
7.0
5.67
-1.33
3.33
6.67
-0.33
1.0
0.0
-0.67
-1.0
9.67
3.33
-1.0
3.0
1.0
2.0
0.33
3.67
7.0
4.33
8.33
2.33
0.33
1.33
0.0
1.67
8.67
5.33
0.0
0.0
0.0
0.0
6.33
1.33
-1.33
0.0
3.0
-2.67
4.67
0.67
-1.33
1.0
0.67
2.0
-0.67
4.33
-2.67
5.33
-1.67
0.0
-2.0
1.67
6.67
0.67
0.33
1.0
-0.33
0.0
2.67
-7.33
7.33
6.67
3.0
5.67
1.0
-1.0
6.0
2.67
-6.33
1.67
7.67
-3.0
7.33
4.33
1.33
6.67
0.67
12.67
7.0
0.0
3.67
9.0
3.0
17.67
14.33
4.33
10.67
6.67
6.33
8.0
31.67
9.0
10.0
12.33
4.0
12.33
11.67
17.0
14.0
29.33
27.33
40.67
38.0
27.0
36.33
20.33
29.0
29.0
20.0
7.0
22.67
14.0
13.67
29.33
24.67
12.0
16.0
20.0
20.33
44.33
56.67
35.33
39.33
31.0
14.67
31.0
50.0
67.0
67.0
51.0
29.33
23.67
11.67
1.67
6.67
11.67
9.33
17.67
22.33
22.33
40.67
28.33
20.33
19.0
13.0
15.67
5.33
-1.33
9.33
-3.67
3.33
4.0
22.0
16.33
12.33
11.67
11.67
-1.0
4.67
16.67
1.67
12.67
10.0
7.33
8.0
0.67
5.67
13.67
5.33
10.67
12.67
3.67
-3.33
15.0
8.67
11.33
15.67
13.33
4.33
4.0
4.33
4.33
6.33
3.0
11.33
6.0
5.33
3.33
4.33
9.33
1.0
-0.67
3.33
1.0
12.33
4.0
6.67
-1.33
-1.33
2.0
8.0
4.33
8.0
-2.67
0.0
3.33
9.33
-3.33
-1.67
1.0
16.33
7.0
11.33
13.33
-2.0
3.33
-2.33
-1.0
-4.33
-4.67
-3.67
8.0
3.67
0.0
0.33
-2.33
0.67
7.0
12.67
4.33
3.0
9.0
0.67
6.0
5.0
0.33
1.0
2.0
2.67
-0.33
0.0
-5.0
8.0

File: 8.5.txt
0.0
-140.67
-7.67
11.33
9.33
0.0
-0.67
-0.33
1.0
0.0
1.0
0.33
-1.0
-0.33
-0.67
-0.33
1.67
1.0
1.33
-0.33
4.33
1.33
3.67
1.67
6.33
1.33
-5.33
0.0
8.0
11.0
5.0
2.67
8.33
2.0
-2.33
9.0
2.67
1.67
2.0
7.0
0.0
5.0
1.67
-5.67
1.0
2.67
3.67
-1.67
4.33
3.33
-2.67
3.0
2.67
2.67
-2.67
3.67
-0.33
7.0
-1.0
-0.67
-2.0
5.67
-0.67
3.0
5.0
1.0
0.0
-0.67
-1.33
1.0
2.33
0.33
-0.67
-2.67
0.33
1.0
-3.33
2.67
3.33
3.0
-2.0
-4.0
0.0
-1.67
-0.67
1.67
-2.0
4.0
0.33
5.67
2.67
-1.33
-1.0
1.67
1.0
3.33
-0.67
-1.67
2.33
2.33
2.0
-2.0
2.67
2.67
1.67
0.33
1.0
-1.33
-1.0
-0.33
0.67
-0.67
4.67
1.0
7.67
17.0
6.0
-1.0
5.67
-0.33
4.67
4.67
-1.0
7.33
1.33
6.33
11.67
8.67
4.67
4.0
4.0
3.67
11.0
6.0
21.67
18.33
6.33
13.67
6.67
3.33
12.0
21.67
9.0
5.0
2.33
6.0
8.33
11.67
17.0
6.0
12.33
22.33
24.67
16.0
5.0
14.33
15.33
16.0
20.0
12.0
11.0
14.67
8.0
25.67
56.33
11.67
4.0
1.0
22.0
50.33
55.33
55.67
38.33
28.33
28.0
32.67
45.0
44.0
53.0
67.0
44.0
21.33
21.67
4.67
-4.33
12.67
7.67
15.33
23.67
20.33
8.33
29.67
5.33
22.33
44.0
28.0
3.67
5.33
-1.33
7.33
1.33
1.33
14.0
1.0
10.33
3.33
14.67
-0.33
11.0
15.67
13.67
6.67
-9.33
14.0
-1.67
11.0
15.67
2.67
8.67
15.33
17.67
9.67
24.67
12.67
8.0
8.67
10.33
7.67
12.33
0.33
20.0
7.33
3.33
10.33
9.0
-3.67
8.0
4.33
12.33
3.33
-6.67
4.0
2.33
2.33
3.0
-2.67
12.0
-3.33
-1.33
6.67
1.0
3.0
-6.67
4.0
11.33
4.0
14.33
1.33
2.67
-3.67
0.0
-0.67
4.0
4.33
4.33
1.0
2.33
-1.33
-3.0
-0.33
-0.67
4.33
4.0
4.67
-1.0
2.33
7.67
4.67
2.0
-0.33
0.33
5.0
2.0
-1.33
1.0
2.0
7.33
-2.0
2.0
0.67
-2.33
-2.0
-6.0
-3.0

File: 8.25.txt
0.0
-111.67
37.33
-25.67
5.33
-2.0
1.33
0.67
1.0
0.0
0.0
0.33
0.0
0.67
0.33
-1.33
4.67
2.0
3.33
-2.33
8.33
7.33
0.67
5.67
3.33
4.33
5.67
-2.0
11.0
3.0
5.0
2.67
2.33
1.0
2.67
2.0
-2.33
0.67
1.0
3.0
5.0
-3.0
6.67
-1.67
4.0
3.67
7.67
4.33
-3.67
4.33
-2.67
4.0
6.67
2.67
4.33
1.67
2.67
0.0
1.0
1.33
-4.0
2.67
-4.67
3.0
6.0
5.0
3.0
-1.67
-1.33
4.0
0.33
0.33
1.33
0.33
4.33
1.0
1.67
2.67
1.33
3.0
-5.0
4.0
-1.0
1.33
0.33
-5.33
-2.0
0.0
0.33
2.67
-2.33
-0.33
-1.0
1.67
2.0
3.33
0.33
2.33
0.33
2.33
1.0
3.0
1.67
-1.33
-0.33
3.33
2.0
2.67
1.0
-2.33
-0.33
7.33
2.67
2.0
0.67
4.0
3.0
-1.0
1.67
-2.33
-1.33
8.67
3.0
-1.67
3.33
2.33
0.67
3.67
6.67
6.0
1.0
8.67
3.0
5.0
15.67
29.33
16.33
7.67
15.67
3.33
14.0
10.67
19.0
7.0
11.33
13.0
22.33
13.67
11.0
7.0
16.33
18.33
15.67
20.0
14.0
22.33
15.33
20.0
18.0
15.0
5.0
12.67
10.0
43.67
41.33
25.67
3.0
7.0
10.0
20.33
22.33
46.67
48.33
42.33
14.0
2.67
39.0
46.0
73.0
74.0
61.0
21.33
11.67
7.67
2.67
2.67
10.67
12.33
20.67
21.33
12.33
25.67
10.33
18.33
27.0
22.0
28.67
23.33
9.67
7.33
7.33
8.33
22.0
9.0
6.33
13.33
9.67
12.67
7.0
7.67
9.67
5.67
1.67
11.0
-1.67
14.0
3.67
-0.33
17.67
12.33
19.67
9.67
6.67
2.67
10.0
14.67
11.33
10.67
13.33
0.33
1.0
17.33
-3.67
12.33
15.0
3.33
1.0
1.33
3.33
-5.67
6.33
12.0
7.33
3.33
5.0
6.33
1.0
10.67
7.67
10.67
3.0
-2.0
10.33
6.0
2.33
8.0
-0.67
8.33
5.67
-2.67
-4.0
7.33
4.0
1.33
5.33
-2.0
0.33
4.67
-2.0
-1.33
-2.67
-2.67
9.0
5.67
4.0
6.33
-1.33
4.67
5.0
3.67
2.33
10.0
6.0
0.67
4.0
4.0
-3.67
5.0
4.0
8.67
1.67
0.0
-4.0
-2.0

File: 9.0.txt
0.0
-26.67
-35.67
12.33
8.33
-1.0
1.33
0.67
0.0
1.0
3.0
0.33
-1.0
-0.33
0.33
1.67
2.67
1.0
1.33
-0.33
2.33
5.33
6.67
-0.33
2.33
0.33
-0.33
2.0
2.0
7.0
4.0
-2.33
2.33
-1.0
1.67
7.0
1.67
0.67
6.0
2.0
1.0
2.0
-2.33
6.33
4.0
4.67
7.67
1.33
3.33
3.33
1.33
5.0
1.67
0.67
1.33
2.67
3.67
-4.0
-1.0
2.33
-4.0
2.67
0.33
-3.0
3.0
4.0
4.0
1.33
-0.33
0.0
-0.67
-0.67
0.33
3.33
3.33
8.0
-0.33
5.67
4.33
2.0
4.0
-2.0
1.0
3.33
-2.67
-1.33
-1.0
4.0
-1.67
2.67
1.67
-1.33
5.0
-1.33
-2.0
2.33
6.33
-5.67
2.33
-1.67
0.0
2.0
7.67
-1.33
2.67
11.33
0.0
3.67
5.0
-3.33
4.67
3.33
2.67
3.0
-0.33
-1.0
2.0
10.0
3.67
-2.33
2.67
-0.33
6.0
10.33
11.33
3.33
3.67
2.67
13.67
10.0
3.0
10.67
10.0
20.0
67.67
48.33
17.33
19.67
5.67
7.33
14.0
17.67
14.0
15.0
7.33
10.0
8.33
13.67
14.0
16.0
27.33
40.33
48.67
46.0
27.0
22.33
18.33
15.0
15.0
11.0
5.0
11.67
11.0
37.67
52.33
25.67
6.0
11.0
35.0
50.33
56.33
54.67
30.33
16.33
23.0
17.67
29.0
43.0
33.0
62.0
22.0
23.33
16.67
6.67
-3.33
6.67
14.67
9.33
8.67
13.33
36.33
22.67
19.33
21.33
31.0
34.0
26.67
17.33
12.67
13.33
11.33
11.33
8.0
0.0
11.33
2.33
7.67
6.67
6.0
-1.33
9.67
-4.33
-1.33
6.0
4.33
8.0
-3.33
16.67
-1.33
20.33
12.67
8.67
10.67
12.67
30.0
18.67
8.33
-0.33
8.33
4.33
15.0
22.33
7.33
3.33
1.0
7.33
17.0
4.33
6.33
-3.67
-5.67
17.0
3.33
0.33
-1.0
-0.67
-5.0
5.67
2.67
14.67
6.0
6.0
0.33
4.0
6.33
-4.0
4.33
1.33
2.67
4.33
4.0
8.33
4.0
-0.67
5.33
-5.0
1.33
-0.33
1.0
-0.33
-4.67
5.33
6.0
5.67
-5.0
10.33
2.67
0.67
11.0
-2.33
2.33
7.0
6.0
-2.33
3.0
-1.0
-3.67
2.0
0.0
-2.33
0.67
0.0
3.0
1.0

File: 9.5.txt
0.0
-115.67
73.33
-23.67
-1.67
2.0
-0.67
0.67
0.0
0.0
0.0
0.33
-1.0
-0.33
0.33
1.67
2.67
0.0
2.33
-2.33
3.33
3.33
2.67
3.67
9.33
6.33
-4.33
1.0
6.0
0.0
7.0
-0.33
6.33
2.0
-2.33
2.0
3.67
-0.33
1.0
1.0
6.0
3.0
2.67
2.33
1.0
-3.33
2.67
-2.67
-2.67
-0.67
7.33
0.0
-2.33
-2.33
5.33
4.67
-2.33
3.0
-1.0
1.33
-4.0
0.67
0.33
4.0
3.0
-1.0
0.0
2.33
-6.33
-2.0
-1.67
1.33
-1.67
-2.67
1.33
0.0
-2.33
0.67
4.33
-2.0
-1.0
4.0
0.0
4.33
4.33
1.67
-4.0
1.0
2.33
0.67
-0.33
-3.33
2.0
0.67
1.0
3.33
6.33
0.33
4.33
0.33
3.0
0.0
6.67
0.67
-1.33
0.33
-2.0
0.67
-2.0
2.67
-4.33
0.33
-1.33
4.0
-0.33
16.0
4.0
6.0
1.67
6.67
-3.33
2.67
-5.0
0.33
8.33
2.33
8.67
-0.33
8.67
4.0
10.0
1.67
14.0
15.0
29.67
17.33
5.33
10.67
7.67
17.33
23.0
29.67
19.0
13.0
12.33
16.0
13.33
12.67
24.0
10.0
25.33
49.33
40.67
39.0
47.0
63.33
37.33
28.0
14.0
8.0
6.0
16.67
17.0
9.67
21.33
21.67
11.0
15.0
37.0
42.33
71.33
42.67
34.33
26.33
10.0
8.67
38.0
37.0
51.0
37.0
41.0
25.33
17.67
11.67
5.67
8.67
7.67
13.33
24.67
18.33
31.33
37.67
9.33
27.33
21.0
14.0
28.67
9.33
12.67
3.33
12.33
11.33
11.0
14.0
7.33
8.33
20.67
3.67
18.0
9.67
28.67
8.67
6.67
9.0
1.33
13.0
10.67
-0.33
15.67
6.33
24.67
14.67
23.67
1.67
17.0
13.67
1.33
-1.33
-2.67
4.33
10.0
1.33
1.33
8.33
12.0
7.33
7.0
1.33
2.33
4.33
4.33
2.0
-3.67
11.33
5.0
-0.67
4.0
-12.33
3.67
4.67
1.0
10.0
12.33
5.0
8.33
-5.0
5.33
0.33
1.67
0.33
2.0
3.33
0.0
11.33
0.33
-4.0
13.33
-1.33
2.0
-7.33
4.33
0.33
7.0
8.67
-1.0
7.33
6.67
1.67
3.0
1.67
2.33
1.0
0.0
1.67
1.0
3.0
-1.67
-1.0
0.0
3.67
0.67
2.0
-3.0
4.0

File: 9.25.txt
0.0
-96.67
-19.67
-17.67
1.33
-3.0
-0.67
-0.33
0.0
0.0
0.0
-0.67
-1.0
-0.33
0.33
-0.33
2.67
1.0
3.33
-3.33
2.33
6.33
4.67
3.67
1.33
5.33
1.67
-2.0
4.0
3.0
7.0
-8.33
7.33
4.0
2.67
7.0
7.67
-0.33
-4.0
1.0
0.0
10.0
3.67
-3.67
-2.0
-1.33
4.67
1.33
1.33
3.33
2.33
4.0
0.67
-0.33
-1.67
4.67
2.67
3.0
-2.0
6.33
-2.0
5.67
0.33
-2.0
1.0
7.0
1.0
2.33
-3.33
0.0
0.33
-0.67
-1.67
-2.67
2.33
2.0
-0.33
2.67
5.33
-1.0
-4.0
1.0
0.0
-0.67
1.33
-1.33
0.0
5.0
-1.67
6.67
0.67
-1.33
2.0
-1.33
-2.0
2.33
2.33
1.33
-1.67
0.33
5.0
0.0
5.67
4.67
-0.33
2.33
0.0
7.67
3.0
0.67
4.67
8.33
-2.33
5.0
0.67
1.0
2.0
1.0
8.67
3.67
0.67
5.67
-1.0
0.33
-1.67
1.33
5.67
4.67
11.67
2.0
9.0
5.67
13.0
29.0
69.67
58.33
21.33
15.67
-2.33
9.33
18.0
15.67
15.0
14.0
11.33
10.0
-0.67
9.67
15.0
17.0
33.33
48.33
53.67
38.0
16.0
43.33
36.33
26.0
7.0
15.0
3.0
7.67
18.0
24.67
26.33
29.67
8.0
11.0
24.0
50.33
89.33
83.67
48.33
28.33
16.0
12.67
34.0
34.0
49.0
45.0
45.0
28.33
19.67
12.67
0.67
11.67
7.67
11.33
23.67
16.33
21.33
33.67
24.33
13.33
25.0
21.0
33.67
29.33
8.67
6.33
2.33
11.33
16.0
5.0
8.33
9.33
2.67
-5.33
4.0
15.67
1.67
3.67
3.67
3.0
5.33
5.0
15.67
8.67
4.67
12.33
4.67
9.67
5.67
11.67
24.0
9.67
14.33
0.67
11.33
6.33
5.0
22.33
11.33
8.33
8.0
11.33
4.0
3.33
3.33
8.33
-4.67
13.0
6.33
6.33
-4.0
2.33
3.0
-1.33
5.67
1.67
-5.0
8.0
8.33
0.0
12.33
-8.0
3.33
14.33
-1.33
-0.67
6.0
10.33
-2.0
-4.67
2.33
7.0
4.33
3.67
6.0
-3.33
-2.67
1.33
5.0
6.67
9.0
0.33
2.67
0.67
-4.0
1.67
1.33
3.0
2.0
0.67
4.0
0.0
-1.67
-3.0
-2.0
1.67
-0.33
0.0
-1.0
3.0

File: 10.5.txt
0.0
70.33
-30.67
4.33
-6.67
0.0
-0.67
-0.33
1.0
1.0
0.0
-0.67
-1.0
0.67
0.33
-0.33
3.67
3.0
2.33
-1.33
4.33
4.33
4.67
0.67
5.33
-1.67
-0.33
2.0
0.0
6.0
-1.0
-0.33
8.33
6.0
-0.33
2.0
1.67
-2.33
6.0
8.0
4.0
1.0
4.67
1.33
7.0
2.67
2.67
-2.67
2.33
4.33
2.33
0.0
7.67
-1.33
2.33
4.67
9.67
0.0
-5.0
3.33
-1.0
-0.33
-1.67
0.0
6.0
-1.0
1.0
-0.67
-3.33
-2.0
1.33
5.33
-1.67
5.33
-0.67
-1.0
-2.33
0.67
3.33
1.0
1.0
1.0
3.0
5.33
3.33
-4.33
-1.0
-1.0
0.33
3.67
2.67
0.67
2.0
1.67
-2.0
2.33
1.33
-1.67
3.33
3.33
-4.0
2.0
1.67
5.67
-2.33
3.33
3.0
9.67
3.0
2.67
2.67
9.33
8.67
-2.0
2.67
9.0
11.0
3.0
1.67
-0.33
4.67
9.67
-1.0
8.33
8.33
6.33
6.67
6.67
6.67
10.0
10.0
7.67
10.0
14.0
43.67
38.33
12.33
10.67
9.67
8.33
33.0
92.67
109.0
62.0
21.33
18.0
24.33
18.67
34.0
45.0
43.33
71.33
54.67
47.0
37.0
25.33
23.33
40.0
38.0
18.0
15.0
12.67
7.0
15.67
30.33
18.67
15.0
19.0
32.0
35.33
66.33
101.67
76.33
33.33
34.0
26.67
56.0
54.0
59.0
51.0
42.0
26.33
22.67
6.67
-1.33
10.67
7.67
21.33
23.67
30.33
28.33
32.67
14.33
11.33
18.0
40.0
35.67
9.33
19.67
6.33
20.33
10.33
15.0
12.0
8.33
14.33
12.67
25.67
22.0
13.67
15.67
8.67
15.67
8.0
0.33
8.0
4.67
4.67
1.67
8.33
16.67
2.67
16.67
4.67
30.0
11.67
7.33
3.67
-7.67
9.33
15.0
16.33
3.33
7.33
16.0
4.33
13.0
11.33
7.33
1.33
5.33
8.0
-9.67
11.33
-2.0
-0.67
13.0
-3.33
5.67
14.67
11.0
7.0
8.33
10.0
6.33
1.0
3.33
-1.67
2.67
-4.67
7.0
-0.67
0.0
10.33
8.33
1.0
1.33
-0.33
2.0
2.67
-6.67
3.33
13.0
-0.33
2.0
-3.67
3.67
6.67
2.0
8.67
-3.67
-4.0
2.0
-1.33
-1.0
-3.0
-5.67
9.0
4.0
-1.33
-1.33
-3.0
-1.0
2.0

File: 10.25.txt
0.0
-64.67
27.33
7.33
-4.67
-2.0
0.33
0.67
1.0
0.0
1.0
0.33
-1.0
-0.33
-0.67
-0.33
3.67
-1.0
0.33
-1.33
-1.67
7.33
3.67
2.67
1.33
1.33
-1.33
-2.0
1.0
2.0
-1.0
5.67
10.33
-1.0
-1.33
1.0
1.67
-0.33
-1.0
-4.0
1.0
2.0
2.67
2.33
2.0
2.67
9.67
-3.67
3.33
-3.67
-2.67
3.0
9.67
-2.33
-3.67
-0.33
0.67
3.0
-1.0
-4.67
-2.0
1.67
2.33
-1.0
3.0
2.0
2.0
3.33
0.67
3.0
1.33
2.33
8.33
-3.67
1.33
3.0
-1.33
-0.33
0.33
4.0
-4.0
1.0
-2.0
2.33
0.33
0.67
-1.0
0.0
-0.67
-0.33
-0.33
-5.33
-1.0
-3.33
-2.0
2.33
-4.67
0.33
5.33
6.33
1.0
1.0
6.67
0.67
4.67
3.33
3.0
7.67
3.0
2.67
2.67
-2.67
2.67
-1.0
4.67
4.0
4.0
1.0
0.67
-1.33
-0.33
8.67
1.0
10.33
4.33
8.33
11.67
6.67
9.67
9.0
4.0
5.67
11.0
3.0
60.67
56.33
32.33
9.67
5.67
32.33
46.0
83.67
95.0
27.0
9.33
11.0
13.33
10.67
20.0
18.0
27.33
36.33
25.67
41.0
31.0
32.33
23.33
21.0
26.0
28.0
11.0
10.67
17.0
14.67
18.33
24.67
8.0
7.0
34.0
41.33
75.33
61.67
39.33
21.33
34.0
24.67
33.0
40.0
28.0
52.0
37.0
15.33
20.67
14.67
9.67
12.67
5.67
6.33
13.67
23.33
23.33
32.67
25.33
25.33
28.0
34.0
34.67
27.33
14.67
5.33
15.33
9.33
18.0
-10.0
5.33
10.33
5.67
14.67
13.0
5.67
16.67
3.67
4.67
7.0
4.33
-1.0
10.67
12.67
4.67
18.33
9.67
6.67
8.67
14.67
24.0
9.67
1.33
11.67
8.33
0.33
6.0
16.33
-3.67
11.33
10.0
16.33
4.0
12.33
0.33
5.33
-4.67
16.0
-1.67
7.33
6.0
4.33
3.0
-2.33
3.67
8.67
4.0
11.0
7.33
4.0
4.33
-1.0
6.33
-0.67
4.67
4.33
8.0
1.33
1.0
0.33
4.33
6.0
5.33
5.67
0.0
-5.33
1.33
3.33
0.0
-0.33
10.0
8.33
0.67
1.67
1.0
4.67
9.33
1.0
3.0
-1.33
0.0
2.0
-5.67
5.0
-3.0
-0.33
-2.33
4.0
0.0
4.0

File: 10.75.txt
0.0
-129.67
41.33
12.33
-1.67
-2.0
0.33
-0.33
0.0
1.0
0.0
-0.67
-1.0
-0.33
0.33
-0.33
2.67
1.0
-0.67
-1.33
-1.67
-0.67
6.67
3.67
7.33
-1.67
-8.33
5.0
3.0
2.0
4.0
-3.33
7.33
6.0
5.67
2.0
5.67
2.67
0.0
3.0
3.0
0.0
-2.33
-3.67
5.0
-5.33
3.67
-5.67
-3.67
3.33
1.33
0.0
0.67
0.67
-6.67
3.67
-2.33
1.0
1.0
1.33
3.0
5.67
-1.67
-4.0
2.0
0.0
5.0
2.33
-1.33
3.0
-1.67
0.33
-1.67
-0.67
2.33
-3.0
1.67
1.67
1.33
0.0
-2.0
-2.0
-3.0
-1.67
4.33
5.67
-6.0
6.0
-2.67
7.67
-1.33
3.67
-1.0
-1.33
-2.0
-0.67
-2.67
0.33
3.33
0.33
0.0
1.0
1.67
5.67
-3.33
8.33
-1.0
1.67
2.0
-0.33
-1.33
3.33
4.67
-1.0
1.67
1.0
7.0
6.0
2.67
2.67
3.67
-3.33
6.0
8.33
4.33
-0.67
6.67
2.67
6.67
0.0
7.0
12.67
33.0
31.0
41.67
18.33
7.33
12.67
8.67
20.33
37.0
45.67
83.0
57.0
30.33
16.0
10.33
19.67
34.0
39.0
29.33
62.33
54.67
40.0
22.0
32.33
33.33
42.0
17.0
27.0
15.0
11.67
16.0
17.67
22.33
22.67
10.0
15.0
29.0
81.33
152.33
151.67
85.33
55.33
27.0
22.67
59.0
46.0
53.0
42.0
31.0
15.33
17.67
12.67
7.67
2.67
12.67
2.33
16.67
29.33
25.33
12.67
24.33
12.33
23.0
35.0
30.67
16.33
10.67
7.33
8.33
13.33
13.0
5.0
13.33
20.33
13.67
17.67
19.0
17.67
24.67
4.67
1.67
7.0
-2.67
11.0
12.67
18.67
15.67
11.33
8.67
6.67
14.67
-8.33
26.0
7.67
9.33
7.67
-2.67
0.33
2.0
12.33
11.33
25.33
2.0
3.33
8.0
8.33
9.33
8.33
1.33
2.0
-15.67
-2.67
-2.0
7.33
2.0
2.67
11.67
11.67
0.0
7.0
-0.67
3.0
0.33
1.0
8.33
2.33
1.67
-2.67
-4.0
2.33
-5.0
4.33
8.33
-2.0
3.33
-4.33
5.0
9.67
1.33
-2.67
7.0
2.67
4.0
0.33
0.67
-1.33
5.0
4.67
-0.67
8.0
11.0
-3.33
0.0
-3.0
2.33
1.0
0.0
-3.33
-4.33
8.0
1.0
0.0

File: 12.0.txt
0.0
-20.67
39.33
-19.67
9.33
-1.0
0.33
-0.33
0.0
0.0
2.0
-0.67
-1.0
-0.33
0.33
-0.33
0.67
-2.0
-0.67
-2.33
-1.67
3.33
2.67
2.67
1.33
0.33
-5.33
3.0
-1.0
-1.0
5.0
-5.33
5.33
0.0
2.67
0.0
2.67
6.67
3.0
0.0
-1.0
1.0
-2.33
1.33
6.0
4.67
5.67
-5.67
-2.67
-0.67
-3.67
0.0
-0.33
-1.33
1.33
1.67
0.67
4.0
1.0
-3.67
0.0
2.67
-1.67
-2.0
6.0
1.0
0.0
5.33
-2.33
2.0
2.33
2.33
0.33
3.33
-1.67
2.0
-4.33
-0.33
3.33
-1.0
-4.0
-2.0
2.0
2.33
1.33
-4.33
-1.0
3.0
-1.67
1.67
1.67
3.67
1.0
0.67
0.0
3.33
-3.67
5.33
-1.67
-0.67
-1.0
-1.0
0.67
3.67
3.67
3.33
6.0
3.67
2.0
-0.33
-0.33
-0.67
9.67
5.0
5.67
-1.0
2.0
-3.0
2.67
-2.33
4.67
1.67
-5.0
-2.67
2.33
0.33
7.67
-2.33
4.67
-3.0
3.0
-5.33
7.0
14.0
43.67
57.33
16.33
7.67
4.67
3.33
12.0
14.67
14.0
3.0
5.33
4.0
9.33
9.67
6.0
17.0
10.33
20.33
12.67
16.0
38.0
42.33
34.33
23.0
10.0
7.0
8.0
6.67
18.0
19.67
16.33
14.67
0.0
-1.0
11.0
38.33
104.33
95.67
49.33
39.33
61.0
51.67
23.0
30.0
24.0
22.0
14.0
16.33
15.67
-0.33
-3.33
4.67
11.67
17.33
23.67
21.33
13.33
20.67
-6.67
9.33
12.0
2.0
-0.33
5.33
-0.33
3.33
4.33
10.33
7.0
7.0
9.33
-3.67
0.67
5.67
-2.0
-9.33
4.67
7.67
-2.33
13.0
-10.67
-1.0
-4.33
-1.33
-1.33
6.33
8.67
3.67
18.67
7.67
28.0
11.67
10.33
-5.33
3.33
2.33
5.0
10.33
-1.67
5.33
-1.0
1.33
0.0
1.33
-2.67
4.33
-2.67
-1.0
-6.67
-3.67
6.0
-1.67
-1.0
-6.33
5.67
4.67
-10.0
7.0
1.33
2.0
7.33
4.0
2.33
5.33
-4.33
-2.67
-4.0
7.33
-6.0
1.33
5.33
1.0
-0.67
0.67
-2.0
-4.33
-2.67
-1.67
13.0
6.67
-1.0
1.33
-1.33
-3.33
4.0
0.67
0.33
-4.0
4.0
-2.33
5.0
0.0
3.33
5.0
7.0
-6.33
-2.33
-2.0
-4.0
1.0