Folder: EDX-Concrete-Analysis/EDX Back Ups and Old Files/Spectra copy 3.3.23/Calibration/.ipynb_checkpoints

Note: README.md
This is Anthony's repository for doing all sorts of Energy Dispersive X-ray Analysis on concrete samples.

File: LaB6-checkpoint.txt
0.0
8674.0
4630.0
1068.0
202.0
29.0
3.0
1.0
1.0
2.0
2.0
4.0
2.0
7.0
6.0
16.0
29.0
37.0
54.0
76.0
82.0
112.0
113.0
101.0
123.0
106.0
114.0
113.0
102.0
101.0
124.0
92.0
113.0
102.0
81.0
90.0
92.0
86.0
87.0
93.0
75.0
72.0
66.0
84.0
62.0
48.0
69.0
57.0
53.0
49.0
38.0
39.0
39.0
44.0
34.0
47.0
37.0
35.0
39.0
36.0
30.0
18.0
32.0
21.0
27.0
25.0
24.0
31.0
36.0
19.0
22.0
33.0
32.0
47.0
115.0
187.0
94.0
30.0
21.0
32.0
34.0
24.0
38.0
32.0
49.0
108.0
64.0
70.0
57.0
62.0
60.0
65.0
86.0
76.0
86.0
91.0
99.0
112.0
126.0
120.0
136.0
148.0
172.0
204.0
205.0
237.0
226.0
248.0
255.0
204.0
248.0
248.0
237.0
278.0
282.0
275.0
311.0
320.0
324.0
331.0
329.0
286.0
316.0
314.0
355.0
351.0
341.0
329.0
340.0
381.0
364.0
328.0
335.0
393.0
379.0
390.0
359.0
350.0
357.0
378.0
365.0
354.0
380.0
353.0
326.0
338.0
326.0
350.0
386.0
351.0
312.0
369.0
359.0
332.0
357.0
331.0
321.0
328.0
340.0
335.0
356.0
390.0
363.0
310.0
320.0
325.0
294.0
269.0
333.0
323.0
262.0
256.0
247.0
243.0
246.0
257.0
234.0
211.0
213.0
212.0
214.0
205.0
191.0
193.0
181.0
203.0
166.0
166.0
168.0
144.0
175.0
172.0
186.0
180.0
139.0
187.0
133.0
131.0
144.0
123.0
102.0
85.0
128.0
111.0
81.0
115.0
85.0
81.0
86.0
69.0
72.0
82.0
82.0
75.0
67.0
68.0
65.0
73.0
63.0
49.0
68.0
59.0
59.0
68.0
67.0
99.0
69.0
58.0
77.0
53.0
52.0
49.0
47.0
26.0
40.0
27.0
37.0
36.0
34.0
32.0
41.0
34.0
24.0
29.0
19.0
25.0
33.0
28.0
28.0
26.0
25.0
25.0
25.0
21.0
24.0
28.0
19.0
27.0
28.0
25.0
27.0
16.0
30.0
27.0
27.0
20.0
20.0
22.0
18.0
17.0
25.0
18.0
28.0
15.0
23.0
17.0
9.0
13.0
16.0
23.0
25.0
16.0
21.0
11.0
14.0
12.0
10.0
21.0
16.0
12.0
14.0
13.0
11.0
8.0