Folder: EDX-Concrete-Analysis/EDX Back Ups and Old Files/Data round up/.ipynb_checkpoints

Note: README.md
This is Anthony's repository for doing all sorts of Energy Dispersive X-ray Analysis on concrete samples.

File: LaB6 Ref-checkpoint.txt
LaB6 Ref
*********
#Bins	Energy [keV]	Avg. Background	No Spatial Information
0	-0.144	0	0.0
7	0.306	0	8674.0
14	0.756	0	4630.0
21	1.205	0	1068.0
28	1.655	0	202.0
35	2.105	0	29.0
42	2.554	0	3.0
49	3.003	0	1.0
56	3.452	0	1.0
63	3.901	0	2.0
70	4.35	0	2.0
77	4.799	0	4.0
84	5.247	0	2.0
91	5.695	0	7.0
98	6.144	0	6.0
105	6.592	0	16.0
112	7.04	0	29.0
119	7.488	0	37.0
126	7.936	0	54.0
133	8.384	0	76.0
140	8.831	0	82.0
147	9.279	0	112.0
154	9.726	0	113.0
161	10.173	0	101.0
168	10.62	0	123.0
175	11.068	0	106.0
182	11.515	0	114.0
189	11.961	0	113.0
196	12.408	0	102.0
203	12.855	0	101.0
210	13.301	0	124.0
217	13.748	0	92.0
224	14.194	0	113.0
231	14.641	0	102.0
238	15.087	0	81.0
245	15.533	0	90.0
252	15.979	0	92.0
259	16.425	0	86.0
266	16.871	0	87.0
273	17.317	0	93.0
280	17.763	0	75.0
287	18.208	0	72.0
294	18.654	0	66.0
301	19.099	0	84.0
308	19.545	0	62.0
315	19.99	0	48.0
322	20.436	0	69.0
329	20.881	0	57.0
336	21.326	0	53.0
343	21.771	0	49.0
350	22.216	0	38.0
357	22.661	0	39.0
364	23.106	0	39.0
371	23.551	0	44.0
378	23.996	0	34.0
385	24.441	0	47.0
392	24.886	0	37.0
399	25.33	0	35.0
406	25.775	0	39.0
413	26.22	0	36.0
420	26.664	0	30.0
427	27.109	0	18.0
434	27.553	0	32.0
441	27.998	0	21.0
448	28.442	0	27.0
455	28.887	0	25.0
462	29.331	0	24.0
469	29.775	0	31.0
476	30.22	0	36.0
483	30.664	0	19.0
490	31.108	0	22.0
497	31.552	0	33.0
504	31.997	0	32.0
511	32.441	0	47.0
518	32.885	0	115.0
525	33.329	0	187.0
532	33.773	0	94.0
539	34.218	0	30.0
546	34.662	0	21.0
553	35.106	0	32.0
560	35.55	0	34.0
567	35.994	0	24.0
574	36.438	0	38.0
581	36.883	0	32.0
588	37.327	0	49.0
595	37.771	0	108.0
602	38.215	0	64.0
609	38.659	0	70.0
616	39.103	0	57.0
623	39.547	0	62.0
630	39.992	0	60.0
637	40.436	0	65.0
644	40.88	0	86.0
651	41.324	0	76.0
658	41.769	0	86.0
665	42.213	0	91.0
672	42.657	0	99.0
679	43.101	0	112.0
686	43.546	0	126.0
693	43.99	0	120.0
700	44.435	0	136.0
707	44.879	0	148.0
714	45.323	0	172.0
721	45.768	0	204.0
728	46.212	0	205.0
735	46.657	0	237.0
742	47.102	0	226.0
749	47.546	0	248.0
756	47.991	0	255.0
763	48.436	0	204.0
770	48.881	0	248.0
777	49.325	0	248.0
784	49.77	0	237.0
791	50.215	0	278.0
798	50.66	0	282.0
805	51.105	0	275.0
812	51.551	0	311.0
819	51.996	0	320.0
826	52.441	0	324.0
833	52.886	0	331.0
840	53.332	0	329.0
847	53.777	0	286.0
854	54.223	0	316.0
861	54.668	0	314.0
868	55.114	0	355.0
875	55.56	0	351.0
882	56.005	0	341.0
889	56.451	0	329.0
896	56.897	0	340.0
903	57.343	0	381.0
910	57.789	0	364.0
917	58.236	0	328.0
924	58.682	0	335.0
931	59.128	0	393.0
938	59.575	0	379.0
945	60.021	0	390.0
952	60.468	0	359.0
959	60.915	0	350.0
966	61.361	0	357.0
973	61.808	0	378.0
980	62.255	0	365.0
987	62.703	0	354.0
994	63.15	0	380.0
1001	63.597	0	353.0
1008	64.045	0	326.0
1015	64.492	0	338.0
1022	64.94	0	326.0
1029	65.388	0	350.0
1036	65.836	0	386.0
1043	66.284	0	351.0
1050	66.732	0	312.0
1057	67.18	0	369.0
1064	67.629	0	359.0
1071	68.077	0	332.0
1078	68.526	0	357.0
1085	68.974	0	331.0
1092	69.423	0	321.0
1099	69.872	0	328.0
1106	70.322	0	340.0
1113	70.771	0	335.0
1120	71.22	0	356.0
1127	71.67	0	390.0
1134	72.12	0	363.0
1141	72.569	0	310.0
1148	73.019	0	320.0
1155	73.469	0	325.0
1162	73.92	0	294.0
1169	74.37	0	269.0
1176	74.821	0	333.0
1183	75.272	0	323.0
1190	75.722	0	262.0
1197	76.173	0	256.0
1204	76.625	0	247.0
1211	77.076	0	243.0
1218	77.528	0	246.0
1225	77.979	0	257.0
1232	78.431	0	234.0
1239	78.883	0	211.0
1246	79.335	0	213.0
1253	79.788	0	212.0
1260	80.24	0	214.0
1267	80.693	0	205.0
1274	81.146	0	191.0
1281	81.599	0	193.0
1288	82.052	0	181.0
1295	82.505	0	203.0
1302	82.959	0	166.0
1309	83.413	0	166.0
1316	83.867	0	168.0
1323	84.321	0	144.0
1330	84.775	0	175.0
1337	85.23	0	172.0
1344	85.684	0	186.0
1351	86.139	0	180.0
1358	86.594	0	139.0
1365	87.05	0	187.0
1372	87.505	0	133.0
1379	87.961	0	131.0
1386	88.417	0	144.0
1393	88.873	0	123.0
1400	89.329	0	102.0
1407	89.786	0	85.0
1414	90.242	0	128.0
1421	90.699	0	111.0
1428	91.157	0	81.0
1435	91.614	0	115.0
1442	92.071	0	85.0
1449	92.529	0	81.0
1456	92.987	0	86.0
1463	93.446	0	69.0
1470	93.904	0	72.0
1477	94.363	0	82.0
1484	94.822	0	82.0
1491	95.281	0	75.0
1498	95.74	0	67.0
1505	96.2	0	68.0
1512	96.66	0	65.0
1519	97.12	0	73.0
1526	97.58	0	63.0
1533	98.041	0	49.0
1540	98.502	0	68.0
1547	98.963	0	59.0
1554	99.424	0	59.0
1561	99.885	0	68.0
1568	100.347	0	67.0
1575	100.809	0	99.0
1582	101.272	0	69.0
1589	101.734	0	58.0
1596	102.197	0	77.0
1603	102.66	0	53.0
1610	103.123	0	52.0
1617	103.587	0	49.0
1624	104.051	0	47.0
1631	104.515	0	26.0
1638	104.979	0	40.0
1645	105.444	0	27.0
1652	105.909	0	37.0
1659	106.374	0	36.0
1666	106.84	0	34.0
1673	107.305	0	32.0
1680	107.771	0	41.0
1687	108.238	0	34.0
1694	108.704	0	24.0
1701	109.171	0	29.0
1708	109.638	0	19.0
1715	110.106	0	25.0
1722	110.574	0	33.0
1729	111.042	0	28.0
1736	111.51	0	28.0
1743	111.979	0	26.0
1750	112.447	0	25.0
1757	112.917	0	25.0
1764	113.386	0	25.0
1771	113.856	0	21.0
1778	114.326	0	24.0
1785	114.796	0	28.0
1792	115.267	0	19.0
1799	115.738	0	27.0
1806	116.209	0	28.0
1813	116.681	0	25.0
1820	117.153	0	27.0
1827	117.625	0	16.0
1834	118.098	0	30.0
1841	118.571	0	27.0
1848	119.044	0	27.0
1855	119.518	0	20.0
1862	119.991	0	20.0
1869	120.466	0	22.0
1876	120.94	0	18.0
1883	121.415	0	17.0
1890	121.89	0	25.0
1897	122.366	0	18.0
1904	122.841	0	28.0
1911	123.318	0	15.0
1918	123.794	0	23.0
1925	124.271	0	17.0
1932	124.748	0	9.0
1939	125.226	0	13.0
1946	125.704	0	16.0
1953	126.182	0	23.0
1960	126.66	0	25.0
1967	127.139	0	16.0
1974	127.619	0	21.0
1981	128.098	0	11.0
1988	128.578	0	14.0
1995	129.059	0	12.0
2002	129.539	0	10.0
2009	130.02	0	21.0
2016	130.502	0	16.0
2023	130.984	0	12.0
2030	131.466	0	14.0
2037	131.948	0	13.0
2044	132.431	0	11.0
2047	132.638	0	8.0